dateTime,battery,fileSize,pressure,lux,heartRate,ecg,ppgGreen,ppgRed,ppgIR,saturation,accelerometerZ,accelerometerX,accelerometerY,gyroscopeZ,gyroscopeX,gyroscopeY
null,57.0,1.9836426E-4,0.0,0.0,0.0,0.0,0.0,0.0,0.0,0.0,0.0,0.0,0.0,0.0,0.0,0.0
2022-03-17T15:04:40-03:00,57.0,2.7370453E-4,0.0,0.0,0.0,0.0,0.0,0.0,699040.0,0.0,0.0,0.0,0.0,0.0,0.0,0.0
2022-03-17T15:04:40-03:00,57.0,3.7384033E-4,914.7395,0.0,0.0,0.0,0.0,458336.0,547999.0,0.0,0.0,0.0,0.0,0.0,0.0,0.0
2022-03-17T15:04:41-03:00,57.0,4.8351288E-4,914.7395,0.0,0.0,0.0,0.0,459028.0,548931.0,0.0,-3.095703,2.566584,12.902353,0.0,0.0,0.0
2022-03-17T15:04:41-03:00,57.0,6.093979E-4,914.7395,0.0,0.0,0.0,0.0,459635.0,549765.0,0.0,-3.095703,2.566584,12.902353,0.0,0.0,0.0
2022-03-17T15:04:41-03:00,57.0,7.343292E-4,914.7395,0.0,0.0,0.0,0.0,460087.0,551262.0,0.0,-3.095703,2.566584,12.902353,0.0,0.0,0.0
2022-03-17T15:04:41-03:00,57.0,8.5926056E-4,914.8137,524.0,0.0,0.0,0.0,460407.0,552159.0,0.0,-2.8658595,-0.15801731,10.697293,-0.47036624,0.5925393,0.10751228
2022-03-17T15:04:41-03:00,57.0,0.0010108948,914.8137,524.0,0.0,0.0,0.0,461830.0,553157.0,0.0,-2.8658595,-0.15801731,10.697293,-0.47036624,0.5925393,0.10751228
2022-03-17T15:04:41-03:00,57.0,0.001162529,914.8137,524.0,0.0,0.0,0.0,463204.0,554655.0,0.0,-2.8658595,-0.15801731,10.697293,-0.47036624,0.5925393,0.10751228
2022-03-17T15:04:41-03:00,57.0,0.0013132095,914.7671,328.0,0.0,0.0,0.0,622895.0,642529.0,0.0,-1.1827357,-0.82599956,9.710882,-0.17715092,-0.12583824,-0.17104226
2022-03-17T15:04:41-03:00,57.0,0.0014667511,914.7671,328.0,0.0,0.0,0.0,624945.0,643227.0,0.0,-1.1827357,-0.82599956,9.710882,-0.17715092,-0.12583824,-0.17104226
2022-03-17T15:04:41-03:00,57.0,0.0016202927,914.7671,328.0,0.0,0.0,0.0,626518.0,642505.0,0.0,-1.1827357,-0.82599956,9.710882,-0.17715092,-0.12583824,-0.17104226
2022-03-17T15:04:41-03:00,57.0,0.0017738342,914.7671,328.0,0.0,0.0,0.0,1237727.0,1274934.0,0.0,-1.3910311,-0.51475334,8.848969,-0.118507855,0.18448131,-0.20158553
2022-03-17T15:04:41-03:00,57.0,0.0019292831,914.74316,316.0,0.0,0.0,0.0,1237492.0,1275227.0,0.0,-1.3910311,-0.51475334,8.848969,-0.118507855,0.18448131,-0.20158553
2022-03-17T15:04:41-03:00,57.0,0.0020856857,914.74316,316.0,0.0,0.0,0.0,1237514.0,6361038.0,0.0,-1.3910311,-0.51475334,8.848969,-0.118507855,0.18448131,-0.20158553
2022-03-17T15:04:41-03:00,57.0,0.0022420883,914.74316,316.0,0.0,0.0,0.0,6188776.0,6355844.0,0.0,-1.7429788,0.4165911,9.82341,-0.103847094,0.02565634,-0.0061086523
2022-03-17T15:04:41-03:00,57.0,0.0023975372,914.74316,316.0,0.0,0.0,0.0,6194338.0,6355712.0,0.0,-1.7429788,0.4165911,9.82341,-0.103847094,0.02565634,-0.0061086523
2022-03-17T15:04:41-03:00,57.0,0.0025529861,914.7876,304.0,0.0,0.0,0.0,6214285.0,6359044.0,0.0,-1.7429788,0.4165911,9.82341,-0.103847094,0.02565634,-0.0061086523
2022-03-17T15:04:41-03:00,57.0,0.0027074814,914.7876,304.0,0.0,0.0,0.0,6216056.0,6351554.0,0.0,-1.8602947,-1.103727,9.715671,-0.013439035,-0.004886922,0.037873644
2022-03-17T15:04:41-03:00,57.0,0.0028629303,914.7876,304.0,0.0,0.0,0.0,6192162.0,6332818.0,0.0,-1.8602947,-1.103727,9.715671,-0.013439035,-0.004886922,0.037873644
2022-03-17T15:04:41-03:00,57.0,0.0030183792,914.7876,304.0,0.0,0.0,0.0,6175333.0,6312288.0,0.0,-1.8602947,-1.103727,9.715671,-0.013439035,-0.004886922,0.037873644
2022-03-17T15:04:42-03:00,57.0,0.0031738281,914.72974,300.0,0.0,0.0,0.0,6166915.0,6300088.0,0.0,-1.733402,-0.9672575,9.706094,0.080634214,-0.015882496,0.039095376
2022-03-17T15:04:42-03:00,57.0,0.003329277,914.72974,300.0,86.0,0.0,0.0,6162843.0,6294067.0,0.0,-1.733402,-0.9672575,9.706094,0.080634214,-0.015882496,0.039095376
2022-03-17T15:04:42-03:00,57.0,0.003484726,914.72974,300.0,86.0,0.0,0.0,6161751.0,6292084.0,0.0,-1.733402,-0.9672575,9.706094,0.080634214,-0.015882496,0.039095376
2022-03-17T15:04:42-03:00,57.0,0.0036401749,914.7363,300.0,86.0,0.0,0.0,6161158.0,6290979.0,0.0,-1.6927006,-0.8810662,9.677363,0.04520403,-0.013439035,-0.0012217305
2022-03-17T15:04:42-03:00,57.0,0.0037975311,914.7363,300.0,86.0,0.0,0.0,6160706.0,6290166.0,0.0,-1.6927006,-0.8810662,9.677363,0.04520403,-0.013439035,-0.0012217305
2022-03-17T15:04:42-03:00,57.0,0.0039548874,914.7363,300.0,86.0,0.0,0.0,6160170.0,6289331.0,0.0,-1.6927006,-0.8810662,9.677363,0.04520403,-0.013439035,-0.0012217305
2022-03-17T15:04:42-03:00,57.0,0.0041122437,914.7363,300.0,86.0,0.0,0.0,6160788.0,6288627.0,0.0,-1.8028339,-0.8619126,9.579201,-0.0012217305,-0.002443461,0.02565634
2022-03-17T15:04:42-03:00,57.0,0.0042696,914.7612,304.0,86.0,0.0,0.0,6160867.0,6288964.0,0.0,-1.8028339,-0.8619126,9.579201,-0.0012217305,-0.002443461,0.02565634
2022-03-17T15:04:42-03:00,57.0,0.004424095,914.7612,304.0,86.0,0.0,0.0,6161630.0,6289401.0,0.0,-1.8028339,-0.8619126,9.579201,-0.0012217305,-0.002443461,0.02565634
2022-03-17T15:04:42-03:00,57.0,0.0045804977,914.7612,304.0,86.0,0.0,0.0,6162192.0,6289598.0,0.0,-1.7310078,-0.8571242,9.607931,-0.018325957,-0.0012217305,-0.0061086523
2022-03-17T15:04:42-03:00,57.0,0.004740715,914.7612,304.0,86.0,0.0,0.0,6163629.0,6289403.0,0.0,-1.7310078,-0.8571242,9.607931,-0.018325957,-0.0012217305,-0.0061086523
2022-03-17T15:04:42-03:00,57.0,0.0048999786,914.7737,304.0,86.0,0.0,0.0,6164603.0,6290827.0,0.0,-1.7310078,-0.8571242,9.607931,-0.018325957,-0.0012217305,-0.0061086523
2022-03-17T15:04:42-03:00,57.0,0.005060196,914.7737,304.0,86.0,0.0,0.0,6165888.0,6291187.0,0.0,-1.6783354,-0.89782566,9.6845455,-0.013439035,0.0061086523,-0.009773844
2022-03-17T15:04:42-03:00,57.0,0.0052194595,914.7737,304.0,86.0,0.0,0.0,6166803.0,6292100.0,0.0,-1.6783354,-0.89782566,9.6845455,-0.013439035,0.0061086523,-0.009773844
2022-03-17T15:04:42-03:00,57.0,0.005379677,914.7737,304.0,86.0,0.0,0.0,6167209.0,6292206.0,0.0,-1.6783354,-0.89782566,9.6845455,-0.013439035,0.0061086523,-0.009773844
2022-03-17T15:04:42-03:00,57.0,0.0055389404,914.78125,300.0,86.0,0.0,0.0,6167196.0,6291797.0,0.0,-1.6903064,-1.0726024,9.619903,-0.008552114,-0.0036651916,0.0061086523
2022-03-17T15:04:42-03:00,57.0,0.0056991577,914.78125,300.0,86.0,0.0,0.0,6166460.0,6290700.0,0.0,-1.6903064,-1.0726024,9.619903,-0.008552114,-0.0036651916,0.0061086523
2022-03-17T15:04:42-03:00,57.0,0.005859375,914.78125,300.0,86.0,0.0,0.0,6166634.0,6290169.0,0.0,-1.6903064,-1.0726024,9.619903,-0.008552114,-0.0036651916,0.0061086523
2022-03-17T15:04:42-03:00,57.0,0.0060186386,914.77954,304.0,86.0,0.0,0.0,6166888.0,6290484.0,0.0,-1.6376339,-1.0223241,9.598354,-0.010995574,0.0012217305,-0.0036651916
2022-03-17T15:04:43-03:00,57.0,0.006178856,914.77954,304.0,86.0,0.0,0.0,6166969.0,6290166.0,0.0,-1.6376339,-1.0223241,9.598354,-0.010995574,0.0012217305,-0.0036651916
2022-03-17T15:04:43-03:00,57.0,0.0063381195,914.77954,304.0,0.0,0.0,0.0,6166920.0,6290314.0,0.0,-1.6376339,-1.0223241,9.598354,-0.010995574,0.0012217305,-0.0036651916
2022-03-17T15:04:43-03:00,57.0,0.006497383,914.77954,304.0,0.0,0.0,0.0,6167772.0,6290809.0,0.0,-1.8435353,-0.9911995,9.591172,0.002443461,0.007330383,0.0061086523
2022-03-17T15:04:43-03:00,57.0,0.006652832,914.7876,304.0,0.0,0.0,0.0,6168374.0,6290566.0,0.0,-1.8435353,-0.9911995,9.591172,0.002443461,0.007330383,0.0061086523
2022-03-17T15:04:43-03:00,57.0,0.0068073273,914.7876,304.0,0.0,0.0,0.0,6168433.0,6290711.0,0.0,-1.8435353,-0.9911995,9.591172,0.002443461,0.007330383,0.0061086523
2022-03-17T15:04:43-03:00,57.0,0.006962776,914.7876,304.0,0.0,0.0,0.0,6168930.0,6290844.0,0.0,-1.7764976,-0.9959879,9.794679,0.012217305,0.0012217305,-0.002443461
2022-03-17T15:04:43-03:00,57.0,0.007118225,914.7876,304.0,0.0,0.0,0.0,6169450.0,6291171.0,0.0,-1.7764976,-0.9959879,9.794679,0.012217305,0.0012217305,-0.002443461
2022-03-17T15:04:43-03:00,57.0,0.007273674,914.75977,304.0,0.0,0.0,0.0,6169943.0,6291475.0,0.0,-1.7764976,-0.9959879,9.794679,0.012217305,0.0012217305,-0.002443461
2022-03-17T15:04:43-03:00,57.0,0.0074300766,914.75977,304.0,0.0,0.0,0.0,6170330.0,6291689.0,0.0,-1.7381904,-0.9768343,9.64145,-0.047647487,0.0036651916,-0.010995574
2022-03-17T15:04:43-03:00,57.0,0.007587433,914.75977,304.0,0.0,0.0,0.0,6170105.0,6291081.0,0.0,-1.7381904,-0.9768343,9.64145,-0.047647487,0.0036651916,-0.010995574
2022-03-17T15:04:43-03:00,57.0,0.0077438354,914.75977,304.0,0.0,0.0,0.0,6169470.0,6290601.0,0.0,-1.7381904,-0.9768343,9.64145,-0.047647487,0.0036651916,-0.010995574
2022-03-17T15:04:43-03:00,57.0,0.007901192,914.781,304.0,0.0,0.0,0.0,6169833.0,6290351.0,0.0,-1.7501614,-0.9720459,9.655815,0.012217305,-0.008552114,0.019547688
2022-03-17T15:04:43-03:00,57.0,0.008054733,914.781,304.0,0.0,0.0,0.0,6170371.0,6290585.0,0.0,-1.7501614,-0.9720459,9.655815,0.012217305,-0.008552114,0.019547688
2022-03-17T15:04:43-03:00,57.0,0.008208275,914.781,304.0,0.0,0.0,0.0,6170717.0,6291037.0,0.0,-1.7501614,-0.9720459,9.655815,0.012217305,-0.008552114,0.019547688
2022-03-17T15:04:43-03:00,57.0,0.008361816,914.781,304.0,0.0,0.0,0.0,6171535.0,6291324.0,0.0,-1.70946,-0.9983821,9.619903,-0.015882496,0.0061086523,-0.0061086523
2022-03-17T15:04:43-03:00,57.0,0.008516312,914.74634,304.0,0.0,0.0,0.0,6170860.0,6291164.0,0.0,-1.70946,-0.9983821,9.619903,-0.015882496,0.0061086523,-0.0061086523
2022-03-17T15:04:43-03:00,57.0,0.008672714,914.74634,304.0,0.0,0.0,0.0,6171345.0,6291163.0,0.0,-1.70946,-0.9983821,9.619903,-0.015882496,0.0061086523,-0.0061086523
2022-03-17T15:04:43-03:00,57.0,0.008829117,914.74634,304.0,0.0,0.0,0.0,6171917.0,6291269.0,0.0,-1.7501614,-0.91219085,9.682152,-0.002443461,0.010995574,-0.0012217305
2022-03-17T15:04:43-03:00,57.0,0.008987427,914.77783,300.0,0.0,0.0,0.0,6171791.0,6291104.0,0.0,-1.7501614,-0.91219085,9.682152,-0.002443461,0.010995574,-0.0012217305
2022-03-17T15:04:44-03:00,57.0,0.009145737,914.77783,300.0,0.0,0.0,0.0,6172590.0,6291279.0,0.0,-1.7501614,-0.91219085,9.682152,-0.002443461,0.010995574,-0.0012217305
2022-03-17T15:04:44-03:00,57.0,0.009304047,914.77783,300.0,0.0,0.0,0.0,6171425.0,6291054.0,0.0,-1.7645266,-1.0007763,9.679757,-0.002443461,0.0012217305,-0.0036651916
2022-03-17T15:04:44-03:00,57.0,0.009462357,914.77783,300.0,0.0,0.0,0.0,6171460.0,6290391.0,0.0,-1.7645266,-1.0007763,9.679757,-0.002443461,0.0012217305,-0.0036651916
2022-03-17T15:04:44-03:00,57.0,0.0096206665,914.761,300.0,0.0,0.0,0.0,6170412.0,6289171.0,0.0,-1.7645266,-1.0007763,9.679757,-0.002443461,0.0012217305,-0.0036651916
2022-03-17T15:04:44-03:00,57.0,0.009778023,914.761,300.0,0.0,0.0,0.0,6170685.0,6289360.0,0.0,-1.7764976,-0.9600749,9.655815,0.007330383,-0.007330383,0.0061086523
2022-03-17T15:04:44-03:00,57.0,0.009932518,914.761,300.0,0.0,0.0,0.0,6171278.0,6289035.0,0.0,-1.7764976,-0.9600749,9.655815,0.007330383,-0.007330383,0.0061086523
2022-03-17T15:04:44-03:00,57.0,0.010087013,914.761,300.0,0.0,0.0,0.0,6171272.0,6289408.0,0.0,-1.7764976,-0.9600749,9.655815,0.007330383,-0.007330383,0.0061086523
2022-03-17T15:04:44-03:00,57.0,0.0102415085,914.7522,300.0,0.0,0.0,0.0,6171668.0,6289529.0,0.0,-1.661576,-0.91458505,9.696517,-0.008552114,0.002443461,0.0
2022-03-17T15:04:44-03:00,57.0,0.010389328,914.7522,300.0,0.0,0.0,0.0,6171437.0,6289715.0,0.0,-1.661576,-0.91458505,9.696517,-0.008552114,0.002443461,0.0
2022-03-17T15:04:44-03:00,57.0,0.010536194,914.7522,300.0,0.0,0.0,0.0,6172104.0,6289532.0,0.0,-1.661576,-0.91458505,9.696517,-0.008552114,0.002443461,0.0
2022-03-17T15:04:44-03:00,57.0,0.01068306,914.7522,300.0,0.0,0.0,0.0,6172417.0,6290073.0,0.0,-1.661576,-0.91458505,9.696517,-0.008552114,0.002443461,0.0
2022-03-17T15:04:44-03:00,57.0,0.010828972,914.7832,300.0,0.0,0.0,0.0,6172699.0,6289591.0,0.0,-1.7645266,-0.92176765,9.679757,-0.002443461,0.0,-0.0012217305
2022-03-17T15:04:44-03:00,57.0,0.010978699,914.7832,300.0,0.0,0.0,0.0,6173356.0,6290260.0,0.0,-1.7645266,-0.92176765,9.679757,-0.002443461,0.0,-0.0012217305
2022-03-17T15:04:44-03:00,57.0,0.011128426,914.7832,300.0,0.0,0.0,0.0,6173315.0,6290332.0,0.0,-1.7645266,-0.92176765,9.679757,-0.002443461,0.0,-0.0012217305
2022-03-17T15:04:44-03:00,57.0,0.0112781525,914.7832,300.0,0.0,0.0,0.0,6172449.0,6289467.0,0.0,-1.745373,-0.94570965,9.65821,-0.010995574,-0.0012217305,-0.0012217305
2022-03-17T15:04:44-03:00,57.0,0.011436462,914.7661,300.0,0.0,0.0,0.0,6171627.0,6288390.0,0.0,-1.745373,-0.94570965,9.65821,-0.010995574,-0.0012217305,-0.0012217305
2022-03-17T15:04:44-03:00,57.0,0.011593819,914.7661,300.0,0.0,0.0,0.0,6171629.0,6287789.0,0.0,-1.745373,-0.94570965,9.65821,-0.010995574,-0.0012217305,-0.0012217305
2022-03-17T15:04:44-03:00,57.0,0.011751175,914.7661,300.0,0.0,0.0,0.0,6171529.0,6287798.0,0.0,-1.6998832,-0.9624691,9.655815,0.007330383,-0.004886922,0.004886922
2022-03-17T15:04:44-03:00,57.0,0.01190567,914.7661,300.0,0.0,0.0,0.0,6171908.0,6288408.0,0.0,-1.6998832,-0.9624691,9.655815,0.007330383,-0.004886922,0.004886922
2022-03-17T15:04:44-03:00,57.0,0.012059212,914.7588,304.0,0.0,0.0,0.0,6172336.0,6288240.0,0.0,-1.6998832,-0.9624691,9.655815,0.007330383,-0.004886922,0.004886922
2022-03-17T15:04:45-03:00,57.0,0.012213707,914.7588,304.0,0.0,0.0,0.0,6172691.0,6288385.0,0.0,-1.7597382,-0.92895025,9.627085,-0.008552114,0.004886922,-0.0012217305
2022-03-17T15:04:45-03:00,57.0,0.012371063,914.7588,304.0,0.0,0.0,0.0,6173294.0,6288595.0,0.0,-1.7597382,-0.92895025,9.627085,-0.008552114,0.004886922,-0.0012217305
2022-03-17T15:04:45-03:00,57.0,0.0125284195,914.7798,304.0,0.0,0.0,0.0,6172884.0,6288320.0,0.0,-1.7597382,-0.92895025,9.627085,-0.008552114,0.004886922,-0.0012217305
2022-03-17T15:04:45-03:00,57.0,0.012686729,914.7798,304.0,0.0,0.0,0.0,6173511.0,6288847.0,0.0,-1.757344,-0.9576807,9.679757,-0.0036651916,0.002443461,0.0012217305
2022-03-17T15:04:45-03:00,57.0,0.012842178,914.7798,304.0,0.0,0.0,0.0,6173790.0,6288511.0,0.0,-1.757344,-0.9576807,9.679757,-0.0036651916,0.002443461,0.0012217305
2022-03-17T15:04:45-03:00,57.0,0.012997627,914.7798,304.0,0.0,0.0,0.0,6173553.0,6289040.0,0.0,-1.757344,-0.9576807,9.679757,-0.0036651916,0.002443461,0.0012217305
2022-03-17T15:04:45-03:00,57.0,0.013153076,914.7744,304.0,0.0,0.0,0.0,6174153.0,6288745.0,0.0,-1.733402,-0.93852705,9.639056,-0.004886922,0.007330383,-0.0012217305
2022-03-17T15:04:45-03:00,57.0,0.013309479,914.7744,304.0,0.0,0.0,0.0,6173120.0,6288232.0,0.0,-1.733402,-0.93852705,9.639056,-0.004886922,0.007330383,-0.0012217305
2022-03-17T15:04:45-03:00,57.0,0.013465881,914.7744,304.0,0.0,0.0,0.0,6172372.0,6287012.0,0.0,-1.733402,-0.93852705,9.639056,-0.004886922,0.007330383,-0.0012217305
2022-03-17T15:04:45-03:00,57.0,0.013622284,914.7744,304.0,0.0,0.0,0.0,6172128.0,6286551.0,0.0,-1.7286136,-1.0103531,9.610326,0.0061086523,-0.004886922,0.002443461
2022-03-17T15:04:45-03:00,57.0,0.013777733,914.7615,304.0,0.0,0.0,0.0,6172605.0,6286749.0,0.0,-1.7286136,-1.0103531,9.610326,0.0061086523,-0.004886922,0.002443461
2022-03-17T15:04:45-03:00,57.0,0.013933182,914.7615,304.0,0.0,0.0,0.0,6173076.0,6287413.0,0.0,-1.7286136,-1.0103531,9.610326,0.0061086523,-0.004886922,0.002443461
2022-03-17T15:04:45-03:00,57.0,0.014088631,914.7615,304.0,0.0,0.0,0.0,6173419.0,6287461.0,0.0,-1.7597382,-0.94331545,9.631873,0.007330383,-0.0012217305,0.0012217305
2022-03-17T15:04:45-03:00,57.0,0.014245987,914.7615,304.0,0.0,0.0,0.0,6173496.0,6287581.0,0.0,-1.7597382,-0.94331545,9.631873,0.007330383,-0.0012217305,0.0012217305
2022-03-17T15:04:45-03:00,57.0,0.014403343,914.76685,304.0,0.0,0.0,0.0,6173602.0,6287667.0,0.0,-1.7597382,-0.94331545,9.631873,0.007330383,-0.0012217305,0.0012217305
2022-03-17T15:04:45-03:00,57.0,0.014561653,914.76685,304.0,0.0,0.0,0.0,6174187.0,6287967.0,0.0,-1.7118542,-0.94092125,9.610326,-0.004886922,0.004886922,-0.0012217305
2022-03-17T15:04:45-03:00,57.0,0.014719963,914.76685,304.0,0.0,0.0,0.0,6174279.0,6288099.0,0.0,-1.7118542,-0.94092125,9.610326,-0.004886922,0.004886922,-0.0012217305
2022-03-17T15:04:45-03:00,57.0,0.014878273,914.76685,304.0,0.0,0.0,0.0,6174515.0,6288044.0,0.0,-1.7118542,-0.94092125,9.610326,-0.004886922,0.004886922,-0.0012217305
2022-03-17T15:04:46-03:00,57.0,0.015036583,914.7803,304.0,0.0,0.0,0.0,6175067.0,6288216.0,0.0,-1.7525556,-0.9840169,9.634268,-0.0061086523,0.007330383,0.002443461
2022-03-17T15:04:46-03:00,57.0,0.015192032,914.7803,304.0,0.0,0.0,0.0,6174905.0,6288722.0,0.0,-1.7525556,-0.9840169,9.634268,-0.0061086523,0.007330383,0.002443461
2022-03-17T15:04:46-03:00,57.0,0.015347481,914.7803,304.0,0.0,0.0,0.0,6175214.0,6288192.0,0.0,-1.7525556,-0.9840169,9.634268,-0.0061086523,0.007330383,0.002443461
2022-03-17T15:04:46-03:00,57.0,0.01550293,914.7803,304.0,0.0,0.0,0.0,6174273.0,6287404.0,0.0,-1.6448165,-0.9528923,9.679757,0.010995574,-0.002443461,0.0012217305
2022-03-17T15:04:46-03:00,57.0,0.015657425,914.75903,300.0,0.0,0.0,0.0,6173471.0,6286343.0,0.0,-1.6448165,-0.9528923,9.679757,0.010995574,-0.002443461,0.0012217305
2022-03-17T15:04:46-03:00,57.0,0.015813828,914.75903,300.0,0.0,0.0,0.0,6173101.0,6285776.0,0.0,-1.6448165,-0.9528923,9.679757,0.010995574,-0.002443461,0.0012217305
2022-03-17T15:04:46-03:00,57.0,0.01597023,914.75903,300.0,0.0,0.0,0.0,6173556.0,6286420.0,0.0,-1.7860745,-0.91219085,9.617508,-0.002443461,0.007330383,-0.0012217305
2022-03-17T15:04:46-03:00,57.0,0.016127586,914.7715,300.0,0.0,0.0,0.0,6174536.0,6286915.0,0.0,-1.7860745,-0.91219085,9.617508,-0.002443461,0.007330383,-0.0012217305
2022-03-17T15:04:46-03:00,57.0,0.016284943,914.7715,300.0,0.0,0.0,0.0,6174820.0,6287056.0,0.0,-1.7860745,-0.91219085,9.617508,-0.002443461,0.007330383,-0.0012217305
2022-03-17T15:04:46-03:00,57.0,0.016442299,914.7715,300.0,0.0,0.0,0.0,6174598.0,6286746.0,0.0,-1.7812861,-0.94810385,9.667787,-0.009773844,0.0012217305,-0.004886922
2022-03-17T15:04:46-03:00,57.0,0.016599655,914.7715,300.0,0.0,0.0,0.0,6174337.0,6286451.0,0.0,-1.7812861,-0.94810385,9.667787,-0.009773844,0.0012217305,-0.004886922
2022-03-17T15:04:46-03:00,57.0,0.016757011,914.7988,304.0,0.0,0.0,0.0,6175053.0,6287088.0,0.0,-1.7812861,-0.94810385,9.667787,-0.009773844,0.0012217305,-0.004886922
2022-03-17T15:04:46-03:00,57.0,0.016914368,914.7988,304.0,0.0,0.0,0.0,6174416.0,6287189.0,0.0,-1.7429788,-0.90979666,9.648633,0.0012217305,0.0012217305,0.0012217305
2022-03-17T15:04:46-03:00,57.0,0.017071724,914.7988,304.0,0.0,0.0,0.0,6175408.0,6287007.0,0.0,-1.7429788,-0.90979666,9.648633,0.0012217305,0.0012217305,0.0012217305
2022-03-17T15:04:46-03:00,57.0,0.01722908,914.7988,304.0,0.0,0.0,0.0,6175886.0,6287358.0,0.0,-1.7429788,-0.90979666,9.648633,0.0012217305,0.0012217305,0.0012217305
2022-03-17T15:04:46-03:00,57.0,0.017385483,914.7617,304.0,0.0,0.0,0.0,6175995.0,6287672.0,0.0,-1.7429788,-0.90979666,9.648633,0.0012217305,0.0012217305,0.0012217305
2022-03-17T15:04:46-03:00,57.0,0.017542839,914.7617,304.0,0.0,0.0,0.0,6176143.0,6287597.0,0.0,-1.769315,-0.9911995,9.677363,-0.0012217305,0.002443461,0.0012217305
2022-03-17T15:04:46-03:00,57.0,0.017698288,914.7617,304.0,0.0,0.0,0.0,6175213.0,6286343.0,0.0,-1.769315,-0.9911995,9.677363,-0.0012217305,0.002443461,0.0012217305
2022-03-17T15:04:46-03:00,57.0,0.017853737,914.7617,304.0,0.0,0.0,0.0,6174260.0,6285879.0,0.0,-1.769315,-0.9911995,9.677363,-0.0012217305,0.002443461,0.0012217305
2022-03-17T15:04:47-03:00,57.0,0.018009186,914.771,304.0,0.0,0.0,0.0,6174193.0,6285434.0,0.0,-1.7980455,-1.0199299,9.691729,-0.0012217305,0.0,0.0036651916
2022-03-17T15:04:47-03:00,57.0,0.018157005,914.771,304.0,0.0,0.0,0.0,6174378.0,6285307.0,0.0,-1.7980455,-1.0199299,9.691729,-0.0012217305,0.0,0.0036651916
2022-03-17T15:04:47-03:00,57.0,0.018304825,914.771,304.0,0.0,0.0,0.0,6175180.0,6285538.0,0.0,-1.7980455,-1.0199299,9.691729,-0.0012217305,0.0,0.0036651916
2022-03-17T15:04:47-03:00,57.0,0.018452644,914.771,304.0,0.0,0.0,0.0,6174844.0,6285978.0,0.0,-1.7669208,-1.0031705,9.694122,0.0036651916,0.004886922,0.0012217305
2022-03-17T15:04:47-03:00,57.0,0.01860714,914.75757,300.0,0.0,0.0,0.0,6175560.0,6285982.0,0.0,-1.7669208,-1.0031705,9.694122,0.0036651916,0.004886922,0.0012217305
2022-03-17T15:04:47-03:00,57.0,0.018762589,914.75757,300.0,0.0,0.0,0.0,6175580.0,6285870.0,0.0,-1.7669208,-1.0031705,9.694122,0.0036651916,0.004886922,0.0012217305
2022-03-17T15:04:47-03:00,57.0,0.018918991,914.75757,300.0,0.0,0.0,0.0,6175494.0,6286120.0,0.0,-1.6950948,-0.9911995,9.7084875,-0.0036651916,0.0036651916,-0.0012217305
2022-03-17T15:04:47-03:00,57.0,0.019079208,914.75757,300.0,0.0,0.0,0.0,6176045.0,6285992.0,0.0,-1.6950948,-0.9911995,9.7084875,-0.0036651916,0.0036651916,-0.0012217305
2022-03-17T15:04:47-03:00,57.0,0.019239426,914.77,300.0,0.0,0.0,0.0,6176137.0,6286781.0,0.0,-1.6950948,-0.9911995,9.7084875,-0.0036651916,0.0036651916,-0.0012217305
2022-03-17T15:04:47-03:00,57.0,0.019396782,914.77,300.0,0.0,0.0,0.0,6176190.0,6286792.0,0.0,-1.7956513,-0.9792285,9.631873,-0.0012217305,0.0036651916,-0.0012217305
2022-03-17T15:04:47-03:00,57.0,0.019553185,914.77,300.0,0.0,0.0,0.0,6176157.0,6286715.0,0.0,-1.7956513,-0.9792285,9.631873,-0.0012217305,0.0036651916,-0.0012217305
2022-03-17T15:04:47-03:00,57.0,0.019709587,914.77,300.0,0.0,0.0,0.0,6176849.0,6287105.0,0.0,-1.7956513,-0.9792285,9.631873,-0.0012217305,0.0036651916,-0.0012217305
2022-03-17T15:04:47-03:00,57.0,0.01986599,914.7727,304.0,0.0,0.0,0.0,6176575.0,6286439.0,0.0,-1.7142484,-0.90021986,9.607931,-0.0036651916,0.0012217305,0.0012217305
2022-03-17T15:04:47-03:00,57.0,0.020023346,914.7727,304.0,0.0,0.0,0.0,6175418.0,6285629.0,0.0,-1.7142484,-0.90021986,9.607931,-0.0036651916,0.0012217305,0.0012217305
2022-03-17T15:04:47-03:00,57.0,0.020181656,914.7727,304.0,0.0,0.0,0.0,6174725.0,6284753.0,0.0,-1.7142484,-0.90021986,9.607931,-0.0036651916,0.0012217305,0.0012217305
2022-03-17T15:04:47-03:00,57.0,0.020339966,914.77563,308.0,0.0,0.0,0.0,6175017.0,6284924.0,0.0,-1.6950948,-0.9624691,9.643845,0.0061086523,-0.007330383,0.004886922
2022-03-17T15:04:47-03:00,57.0,0.020496368,914.77563,308.0,0.0,0.0,0.0,6175537.0,6284968.0,0.0,-1.6950948,-0.9624691,9.643845,0.0061086523,-0.007330383,0.004886922
2022-03-17T15:04:47-03:00,57.0,0.020652771,914.77563,308.0,0.0,0.0,0.0,6175891.0,6285180.0,0.0,-1.6950948,-0.9624691,9.643845,0.0061086523,-0.007330383,0.004886922
2022-03-17T15:04:47-03:00,57.0,0.020809174,914.77563,308.0,0.0,0.0,0.0,6175810.0,6285321.0,0.0,-1.70946,-0.8762778,9.689334,-0.009773844,0.004886922,-0.0012217305
2022-03-17T15:04:47-03:00,57.0,0.020964622,914.80054,304.0,0.0,0.0,0.0,6175593.0,6285538.0,0.0,-1.70946,-0.8762778,9.689334,-0.009773844,0.004886922,-0.0012217305
2022-03-17T15:04:48-03:00,57.0,0.021120071,914.80054,304.0,0.0,0.0,0.0,6175798.0,6285252.0,0.0,-1.70946,-0.8762778,9.689334,-0.009773844,0.004886922,-0.0012217305
2022-03-17T15:04:48-03:00,57.0,0.02127552,914.80054,304.0,0.0,0.0,0.0,6176078.0,6285357.0,0.0,-1.7405846,-0.94570965,9.56723,-0.002443461,0.0061086523,0.0012217305
2022-03-17T15:04:48-03:00,57.0,0.021431923,914.80054,304.0,0.0,0.0,0.0,6176160.0,6285805.0,0.0,-1.7405846,-0.94570965,9.56723,-0.002443461,0.0061086523,0.0012217305
2022-03-17T15:04:48-03:00,57.0,0.02158928,914.8074,304.0,0.0,0.0,0.0,6177007.0,6285696.0,0.0,-1.7405846,-0.94570965,9.56723,-0.002443461,0.0061086523,0.0012217305
2022-03-17T15:04:48-03:00,57.0,0.021744728,914.8074,304.0,0.0,0.0,0.0,6176374.0,6286075.0,0.0,-1.733402,-0.93134445,9.631873,-0.0036651916,0.0036651916,0.0036651916
2022-03-17T15:04:48-03:00,57.0,0.021902084,914.8074,304.0,0.0,0.0,0.0,6177267.0,6286364.0,0.0,-1.733402,-0.93134445,9.631873,-0.0036651916,0.0036651916,0.0036651916
2022-03-17T15:04:48-03:00,57.0,0.02205944,914.8074,304.0,0.0,0.0,0.0,6176581.0,6285790.0,0.0,-1.733402,-0.93134445,9.631873,-0.0036651916,0.0036651916,0.0036651916
2022-03-17T15:04:48-03:00,57.0,0.022215843,914.79443,304.0,0.0,0.0,0.0,6175952.0,6284757.0,0.0,-1.673547,-0.8451532,9.624691,0.009773844,-0.0036651916,0.0012217305
2022-03-17T15:04:48-03:00,57.0,0.022372246,914.79443,304.0,0.0,0.0,0.0,6175033.0,6284262.0,0.0,-1.673547,-0.8451532,9.624691,0.009773844,-0.0036651916,0.0012217305
2022-03-17T15:04:48-03:00,57.0,0.022528648,914.79443,304.0,0.0,0.0,0.0,6175058.0,6283608.0,0.0,-1.673547,-0.8451532,9.624691,0.009773844,-0.0036651916,0.0012217305
2022-03-17T15:04:48-03:00,57.0,0.022685051,914.79443,304.0,0.0,0.0,0.0,6175314.0,6283825.0,0.0,-1.757344,-0.9696517,9.682152,0.004886922,0.0012217305,0.0
2022-03-17T15:04:48-03:00,57.0,0.022831917,914.7678,304.0,0.0,0.0,0.0,6175912.0,6284474.0,0.0,-1.757344,-0.9696517,9.682152,0.004886922,0.0012217305,0.0
2022-03-17T15:04:48-03:00,57.0,0.022977829,914.7678,304.0,0.0,0.0,0.0,6176128.0,6284691.0,0.0,-1.757344,-0.9696517,9.682152,0.004886922,0.0012217305,0.0
2022-03-17T15:04:48-03:00,57.0,0.023123741,914.7678,304.0,0.0,0.0,0.0,6175856.0,6284371.0,0.0,-1.7286136,-0.90979666,9.651027,-0.007330383,0.007330383,-0.0036651916
2022-03-17T15:04:48-03:00,57.0,0.023281097,914.7678,304.0,0.0,0.0,0.0,6175891.0,6284262.0,0.0,-1.7286136,-0.90979666,9.651027,-0.007330383,0.007330383,-0.0036651916
2022-03-17T15:04:48-03:00,57.0,0.023438454,914.79395,304.0,0.0,0.0,0.0,6176209.0,6284166.0,0.0,-1.7286136,-0.90979666,9.651027,-0.007330383,0.007330383,-0.0036651916
2022-03-17T15:04:48-03:00,57.0,0.023596764,914.79395,304.0,0.0,0.0,0.0,6176575.0,6284685.0,0.0,-1.7788919,-0.94092125,9.610326,0.004886922,-0.0061086523,0.0036651916
2022-03-17T15:04:48-03:00,57.0,0.023755074,914.79395,304.0,0.0,0.0,0.0,6177029.0,6284978.0,0.0,-1.7788919,-0.94092125,9.610326,0.004886922,-0.0061086523,0.0036651916
2022-03-17T15:04:48-03:00,57.0,0.023913383,914.7759,300.0,0.0,0.0,0.0,6177308.0,6285186.0,0.0,-1.7788919,-0.94092125,9.610326,0.004886922,-0.0061086523,0.0036651916
2022-03-17T15:04:49-03:00,57.0,0.02407074,914.7759,300.0,0.0,0.0,0.0,6177344.0,6285435.0,0.0,-1.7788919,-0.94092125,9.610326,0.004886922,-0.0061086523,0.0036651916
2022-03-17T15:04:49-03:00,57.0,0.024227142,914.7759,300.0,0.0,0.0,0.0,6177690.0,6285667.0,0.0,-1.7310078,-0.9792285,9.653421,-0.002443461,0.002443461,-0.002443461
2022-03-17T15:04:49-03:00,57.0,0.024382591,914.7759,300.0,0.0,0.0,0.0,6176985.0,6285069.0,0.0,-1.7310078,-0.9792285,9.653421,-0.002443461,0.002443461,-0.002443461
2022-03-17T15:04:49-03:00,57.0,0.02453804,914.7632,300.0,0.0,0.0,0.0,6176333.0,6283756.0,0.0,-1.7310078,-0.9792285,9.653421,-0.002443461,0.002443461,-0.002443461
2022-03-17T15:04:49-03:00,57.0,0.024692535,914.7632,300.0,0.0,0.0,0.0,6175976.0,6283153.0,0.0,-1.7381904,-0.94810385,9.651027,-0.013439035,0.002443461,-0.0012217305
2022-03-17T15:04:49-03:00,57.0,0.024849892,914.7632,300.0,0.0,0.0,0.0,6175633.0,6283185.0,0.0,-1.7381904,-0.94810385,9.651027,-0.013439035,0.002443461,-0.0012217305
2022-03-17T15:04:49-03:00,57.0,0.025007248,914.7632,300.0,0.0,0.0,0.0,6175484.0,6283250.0,0.0,-1.7381904,-0.94810385,9.651027,-0.013439035,0.002443461,-0.0012217305
2022-03-17T15:04:49-03:00,57.0,0.025164604,914.7446,304.0,0.0,0.0,0.0,6176205.0,6283723.0,0.0,-1.7429788,-0.93373865,9.636662,-0.013439035,0.0061086523,-0.002443461
2022-03-17T15:04:49-03:00,57.0,0.02532196,914.7446,304.0,0.0,0.0,0.0,6176906.0,6283714.0,0.0,-1.7429788,-0.93373865,9.636662,-0.013439035,0.0061086523,-0.002443461
2022-03-17T15:04:49-03:00,57.0,0.025478363,914.7446,304.0,0.0,0.0,0.0,6176700.0,6283969.0,0.0,-1.7429788,-0.93373865,9.636662,-0.013439035,0.0061086523,-0.002443461
2022-03-17T15:04:49-03:00,57.0,0.02563572,914.7446,304.0,0.0,0.0,0.0,6177061.0,6283479.0,0.0,-1.745373,-0.92655605,9.605537,-0.004886922,0.009773844,-0.0012217305
2022-03-17T15:04:49-03:00,57.0,0.025791168,914.7571,304.0,0.0,0.0,0.0,6177061.0,6283479.0,0.0,-1.745373,-0.92655605,9.605537,-0.004886922,0.009773844,-0.0012217305
2022-03-17T15:04:49-03:00,57.0,0.02594757,914.7571,304.0,0.0,0.0,0.0,6177286.0,6283906.0,0.0,-1.745373,-0.92655605,9.605537,-0.004886922,0.009773844,-0.0012217305
2022-03-17T15:04:49-03:00,57.0,0.02610302,914.7571,304.0,0.0,0.0,0.0,6177310.0,6284593.0,0.0,-1.7836803,-1.0151415,9.689334,-0.0012217305,0.0012217305,0.0012217305
2022-03-17T15:04:49-03:00,57.0,0.026259422,914.7571,304.0,0.0,0.0,0.0,6177362.0,6284537.0,0.0,-1.7836803,-1.0151415,9.689334,-0.0012217305,0.0012217305,0.0012217305
2022-03-17T15:04:49-03:00,57.0,0.026416779,914.76953,300.0,0.0,0.0,0.0,6178057.0,6284781.0,0.0,-1.7836803,-1.0151415,9.689334,-0.0012217305,0.0012217305,0.0012217305
2022-03-17T15:04:49-03:00,57.0,0.026575089,914.76953,300.0,0.0,0.0,0.0,6178322.0,6284910.0,0.0,-1.8148049,-0.9600749,9.624691,-0.0036651916,0.007330383,0.0
2022-03-17T15:04:49-03:00,57.0,0.026723862,914.76953,300.0,0.0,0.0,0.0,6177404.0,6284193.0,0.0,-1.8148049,-0.9600749,9.624691,-0.0036651916,0.007330383,0.0
2022-03-17T15:04:49-03:00,57.0,0.026872635,914.76953,300.0,0.0,0.0,0.0,6176925.0,6283337.0,0.0,-1.8148049,-0.9600749,9.624691,-0.0036651916,0.007330383,0.0
2022-03-17T15:04:50-03:00,57.0,0.027021408,914.75635,300.0,0.0,0.0,0.0,6176133.0,6282344.0,0.0,-1.7549498,-0.9792285,9.615114,0.0036651916,-0.0012217305,0.0036651916
2022-03-17T15:04:50-03:00,57.0,0.027179718,914.75635,300.0,0.0,0.0,0.0,6176393.0,6282740.0,0.0,-1.7549498,-0.9792285,9.615114,0.0036651916,-0.0012217305,0.0036651916
2022-03-17T15:04:50-03:00,57.0,0.027338028,914.75635,300.0,0.0,0.0,0.0,6177029.0,6282499.0,0.0,-1.7549498,-0.9792285,9.615114,0.0036651916,-0.0012217305,0.0036651916
2022-03-17T15:04:50-03:00,57.0,0.027496338,914.75635,300.0,0.0,0.0,0.0,6177368.0,6283404.0,0.0,-1.7238252,-0.9744401,9.651027,0.0012217305,-0.0012217305,0.0012217305
2022-03-17T15:04:50-03:00,57.0,0.027654648,914.7903,300.0,0.0,0.0,0.0,6177355.0,6283408.0,0.0,-1.7238252,-0.9744401,9.651027,0.0012217305,-0.0012217305,0.0012217305
2022-03-17T15:04:50-03:00,57.0,0.027812004,914.7903,300.0,0.0,0.0,0.0,6177398.0,6283087.0,0.0,-1.7238252,-0.9744401,9.651027,0.0012217305,-0.0012217305,0.0012217305
2022-03-17T15:04:50-03:00,57.0,0.02796936,914.7903,300.0,0.0,0.0,0.0,6177790.0,6283102.0,0.0,-1.7238252,-0.9840169,9.634268,-0.0061086523,0.012217305,-0.0012217305
2022-03-17T15:04:50-03:00,57.0,0.028125763,914.7742,300.0,0.0,0.0,0.0,6177525.0,6283522.0,0.0,-1.7238252,-0.9840169,9.634268,-0.0061086523,0.012217305,-0.0012217305
2022-03-17T15:04:50-03:00,57.0,0.02828312,914.7742,300.0,0.0,0.0,0.0,6177934.0,6283682.0,0.0,-1.7238252,-0.9840169,9.634268,-0.0061086523,0.012217305,-0.0012217305
2022-03-17T15:04:50-03:00,57.0,0.028439522,914.7742,300.0,0.0,0.0,0.0,6178419.0,6284000.0,0.0,-1.7046716,-1.0175357,9.619903,0.0036651916,-0.0036651916,0.0
2022-03-17T15:04:50-03:00,57.0,0.028588295,914.7742,300.0,0.0,0.0,0.0,6178643.0,6284211.0,0.0,-1.7046716,-1.0175357,9.619903,0.0036651916,-0.0036651916,0.0
2022-03-17T15:04:50-03:00,57.0,0.028737068,914.772,300.0,0.0,0.0,0.0,6179184.0,6284501.0,0.0,-1.7046716,-1.0175357,9.619903,0.0036651916,-0.0036651916,0.0
2022-03-17T15:04:50-03:00,57.0,0.028884888,914.772,300.0,0.0,0.0,0.0,6179129.0,6284706.0,0.0,-1.697489,-0.8762778,9.651027,-0.002443461,0.0036651916,0.0
2022-03-17T15:04:50-03:00,57.0,0.0290308,914.772,300.0,0.0,0.0,0.0,6178887.0,6283759.0,0.0,-1.697489,-0.8762778,9.651027,-0.002443461,0.0036651916,0.0
2022-03-17T15:04:50-03:00,57.0,0.029174805,914.772,300.0,0.0,0.0,0.0,6177838.0,6282597.0,0.0,-1.697489,-0.8762778,9.651027,-0.002443461,0.0036651916,0.0
2022-03-17T15:04:50-03:00,57.0,0.029320717,914.78564,300.0,0.0,0.0,0.0,6177319.0,6282506.0,0.0,-1.7405846,-0.91697925,9.655815,0.007330383,-0.0012217305,0.002443461
2022-03-17T15:04:50-03:00,57.0,0.029478073,914.78564,300.0,0.0,0.0,0.0,6176824.0,6282266.0,0.0,-1.7405846,-0.91697925,9.655815,0.007330383,-0.0012217305,0.002443461
2022-03-17T15:04:50-03:00,57.0,0.02963543,914.78564,300.0,0.0,0.0,0.0,6178026.0,6283132.0,0.0,-1.7405846,-0.91697925,9.655815,0.007330383,-0.0012217305,0.002443461
2022-03-17T15:04:50-03:00,57.0,0.029791832,914.78564,300.0,0.0,0.0,0.0,6177943.0,6282876.0,0.0,-1.6950948,-0.8738836,9.6845455,0.004886922,0.002443461,-0.0012217305
2022-03-17T15:04:51-03:00,57.0,0.029949188,914.76294,300.0,0.0,0.0,0.0,6178399.0,6283145.0,0.0,-1.6950948,-0.8738836,9.6845455,0.004886922,0.002443461,-0.0012217305
2022-03-17T15:04:51-03:00,57.0,0.030106544,914.76294,300.0,0.0,0.0,0.0,6178305.0,6283364.0,0.0,-1.6950948,-0.8738836,9.6845455,0.004886922,0.002443461,-0.0012217305
2022-03-17T15:04:51-03:00,57.0,0.0302639,914.76294,300.0,0.0,0.0,0.0,6178486.0,6283008.0,0.0,-1.6950948,-0.8738836,9.6845455,0.004886922,0.002443461,-0.0012217305
2022-03-17T15:04:51-03:00,57.0,0.03041935,914.76294,300.0,0.0,0.0,0.0,6179013.0,6283314.0,0.0,-1.7070658,-0.90021986,9.598354,-0.002443461,0.0036651916,-0.002443461
2022-03-17T15:04:51-03:00,57.0,0.030576706,914.76025,300.0,0.0,0.0,0.0,6178915.0,6283708.0,0.0,-1.7070658,-0.90021986,9.598354,-0.002443461,0.0036651916,-0.002443461
2022-03-17T15:04:51-03:00,57.0,0.030735016,914.76025,300.0,0.0,0.0,0.0,6179244.0,6283783.0,0.0,-1.7070658,-0.90021986,9.598354,-0.002443461,0.0036651916,-0.002443461
2022-03-17T15:04:51-03:00,57.0,0.030893326,914.76025,300.0,0.0,0.0,0.0,6178889.0,6283965.0,0.0,-1.7357962,-0.93613285,9.682152,-0.0012217305,0.004886922,-0.0012217305
2022-03-17T15:04:51-03:00,57.0,0.03105259,914.76025,300.0,0.0,0.0,0.0,6179575.0,6284149.0,0.0,-1.7357962,-0.93613285,9.682152,-0.0012217305,0.004886922,-0.0012217305
2022-03-17T15:04:51-03:00,57.0,0.0312109,914.77075,300.0,0.0,0.0,0.0,6179734.0,6284606.0,0.0,-1.7357962,-0.93613285,9.682152,-0.0012217305,0.004886922,-0.0012217305
2022-03-17T15:04:51-03:00,57.0,0.031368256,914.77075,300.0,0.0,0.0,0.0,6179967.0,6284077.0,0.0,-1.6950948,-0.9648633,9.651027,-0.004886922,0.002443461,0.002443461
2022-03-17T15:04:51-03:00,57.0,0.031523705,914.77075,300.0,0.0,0.0,0.0,6178633.0,6283106.0,0.0,-1.6950948,-0.9648633,9.651027,-0.004886922,0.002443461,0.002443461
2022-03-17T15:04:51-03:00,57.0,0.031679153,914.7744,300.0,0.0,0.0,0.0,6178560.0,6282404.0,0.0,-1.6950948,-0.9648633,9.651027,-0.004886922,0.002443461,0.002443461
2022-03-17T15:04:51-03:00,57.0,0.03183365,914.7744,300.0,0.0,0.0,0.0,6178951.0,6282678.0,0.0,-1.7142484,-0.92655605,9.665392,0.008552114,-0.007330383,0.0036651916
2022-03-17T15:04:51-03:00,57.0,0.031989098,914.7744,300.0,0.0,0.0,0.0,6178812.0,6282488.0,0.0,-1.7142484,-0.92655605,9.665392,0.008552114,-0.007330383,0.0036651916
2022-03-17T15:04:51-03:00,57.0,0.0321455,914.7744,300.0,0.0,0.0,0.0,6179329.0,6283127.0,0.0,-1.7142484,-0.92655605,9.665392,0.008552114,-0.007330383,0.0036651916
2022-03-17T15:04:51-03:00,57.0,0.032299995,914.7742,300.0,0.0,0.0,0.0,6179203.0,6283283.0,0.0,-1.6543933,-0.8451532,9.653421,0.0061086523,-0.0012217305,0.0
2022-03-17T15:04:51-03:00,57.0,0.03244877,914.7742,300.0,0.0,0.0,0.0,6179616.0,6282988.0,0.0,-1.6543933,-0.8451532,9.653421,0.0061086523,-0.0012217305,0.0
2022-03-17T15:04:51-03:00,57.0,0.032596588,914.7742,300.0,0.0,0.0,0.0,6179170.0,6283054.0,0.0,-1.6543933,-0.8451532,9.653421,0.0061086523,-0.0012217305,0.0
2022-03-17T15:04:51-03:00,57.0,0.03274536,914.7742,300.0,0.0,0.0,0.0,6180026.0,6283348.0,0.0,-1.7908629,-0.91697925,9.598354,0.002443461,0.004886922,0.002443461
2022-03-17T15:04:52-03:00,57.0,0.032898903,914.7793,300.0,0.0,0.0,0.0,6179846.0,6283700.0,0.0,-1.7908629,-0.91697925,9.598354,0.002443461,0.004886922,0.002443461
2022-03-17T15:04:52-03:00,57.0,0.033053398,914.7793,300.0,0.0,0.0,0.0,6180567.0,6283870.0,0.0,-1.7908629,-0.91697925,9.598354,0.002443461,0.004886922,0.002443461
2022-03-17T15:04:52-03:00,57.0,0.033207893,914.7793,300.0,0.0,0.0,0.0,6180747.0,6283856.0,0.0,-1.7046716,-0.91937345,9.607931,-0.0036651916,0.0036651916,-0.002443461
2022-03-17T15:04:52-03:00,57.0,0.033366203,914.7793,300.0,0.0,0.0,0.0,6180962.0,6284335.0,0.0,-1.7046716,-0.91937345,9.607931,-0.0036651916,0.0036651916,-0.002443461
2022-03-17T15:04:52-03:00,57.0,0.033524513,914.7993,300.0,0.0,0.0,0.0,6181010.0,6284293.0,0.0,-1.7046716,-0.91937345,9.607931,-0.0036651916,0.0036651916,-0.002443461
2022-03-17T15:04:52-03:00,57.0,0.033682823,914.7993,300.0,0.0,0.0,0.0,6180721.0,6283863.0,0.0,-1.7238252,-0.9552865,9.689334,-0.008552114,-0.002443461,0.0
2022-03-17T15:04:52-03:00,57.0,0.033830643,914.7993,300.0,0.0,0.0,0.0,6180648.0,6283446.0,0.0,-1.7238252,-0.9552865,9.689334,-0.008552114,-0.002443461,0.0
2022-03-17T15:04:52-03:00,57.0,0.033978462,914.7993,300.0,0.0,0.0,0.0,6179696.0,6282392.0,0.0,-1.7238252,-0.9552865,9.689334,-0.008552114,-0.002443461,0.0
2022-03-17T15:04:52-03:00,57.0,0.03412628,914.7888,300.0,0.0,0.0,0.0,6179610.0,6282015.0,0.0,-1.7477672,-0.90979666,9.648633,0.007330383,-0.004886922,0.0036651916
2022-03-17T15:04:52-03:00,57.0,0.03428173,914.7888,300.0,0.0,0.0,0.0,6180203.0,6282042.0,0.0,-1.7477672,-0.90979666,9.648633,0.007330383,-0.004886922,0.0036651916
2022-03-17T15:04:52-03:00,57.0,0.03443718,914.7888,300.0,0.0,0.0,0.0,6180517.0,6282583.0,0.0,-1.7477672,-0.90979666,9.648633,0.007330383,-0.004886922,0.0036651916
2022-03-17T15:04:52-03:00,57.0,0.03459263,914.7888,300.0,0.0,0.0,0.0,6180215.0,6282730.0,0.0,-1.7310078,-0.8858546,9.61272,0.0,-0.0012217305,-0.0012217305
2022-03-17T15:04:52-03:00,57.0,0.034740448,914.7732,300.0,0.0,0.0,0.0,6180815.0,6283299.0,0.0,-1.7310078,-0.8858546,9.61272,0.0,-0.0012217305,-0.0012217305
2022-03-17T15:04:52-03:00,57.0,0.03488922,914.7732,300.0,0.0,0.0,0.0,6180381.0,6282868.0,0.0,-1.7310078,-0.8858546,9.61272,0.0,-0.0012217305,-0.0012217305
2022-03-17T15:04:52-03:00,57.0,0.03503704,914.7732,300.0,0.0,0.0,0.0,6181066.0,6283265.0,0.0,-1.7022774,-0.92416185,9.579201,-0.004886922,0.007330383,0.0
2022-03-17T15:04:52-03:00,57.0,0.035183907,914.7732,300.0,0.0,0.0,0.0,6181270.0,6283560.0,0.0,-1.7022774,-0.92416185,9.579201,-0.004886922,0.007330383,0.0
2022-03-17T15:04:52-03:00,57.0,0.035331726,914.7805,300.0,0.0,0.0,0.0,6181216.0,6283113.0,0.0,-1.7022774,-0.92416185,9.579201,-0.004886922,0.007330383,0.0
2022-03-17T15:04:52-03:00,57.0,0.035479546,914.7805,300.0,0.0,0.0,0.0,6181893.0,6283646.0,0.0,-1.7070658,-0.91219085,9.619903,0.002443461,0.0012217305,0.0036651916
2022-03-17T15:04:52-03:00,57.0,0.03563595,914.7805,300.0,0.0,0.0,0.0,6181345.0,6283352.0,0.0,-1.7070658,-0.91219085,9.619903,0.002443461,0.0012217305,0.0036651916
2022-03-17T15:04:52-03:00,57.0,0.035791397,914.7886,300.0,0.0,0.0,0.0,6182360.0,6284243.0,0.0,-1.7070658,-0.91219085,9.619903,0.002443461,0.0012217305,0.0036651916
2022-03-17T15:04:53-03:00,57.0,0.0359478,914.7886,300.0,0.0,0.0,0.0,6182192.0,6283831.0,0.0,-1.7070658,-0.91219085,9.619903,0.002443461,0.0012217305,0.0036651916
2022-03-17T15:04:53-03:00,57.0,0.036102295,914.7886,300.0,79.0,0.0,0.0,6180941.0,6283296.0,0.0,-1.7166426,-0.9816227,9.634268,0.002443461,-0.004886922,0.002443461
2022-03-17T15:04:53-03:00,57.0,0.036257744,914.7886,300.0,79.0,0.0,0.0,6181219.0,6282739.0,0.0,-1.7166426,-0.9816227,9.634268,0.002443461,-0.004886922,0.002443461
2022-03-17T15:04:53-03:00,57.0,0.036413193,914.7883,304.0,79.0,0.0,0.0,6181392.0,6282768.0,0.0,-1.7166426,-0.9816227,9.634268,0.002443461,-0.004886922,0.002443461
2022-03-17T15:04:53-03:00,57.0,0.03656864,914.7883,304.0,79.0,0.0,0.0,6181940.0,6283159.0,0.0,-1.7980455,-0.9624691,9.624691,-0.0061086523,0.009773844,0.002443461
2022-03-17T15:04:53-03:00,57.0,0.03672409,914.7883,304.0,79.0,0.0,0.0,6182579.0,6283735.0,0.0,-1.7980455,-0.9624691,9.624691,-0.0061086523,0.009773844,0.002443461
2022-03-17T15:04:53-03:00,57.0,0.03687954,914.7883,304.0,79.0,0.0,0.0,6182522.0,6283943.0,0.0,-1.7980455,-0.9624691,9.624691,-0.0061086523,0.009773844,0.002443461
2022-03-17T15:04:53-03:00,57.0,0.03703499,914.7637,304.0,79.0,0.0,0.0,6182586.0,6283221.0,0.0,-1.70946,-1.0127473,9.679757,0.0012217305,0.0012217305,-0.0012217305
2022-03-17T15:04:53-03:00,57.0,0.037190437,914.7637,304.0,79.0,0.0,0.0,6182369.0,6283727.0,0.0,-1.70946,-1.0127473,9.679757,0.0012217305,0.0012217305,-0.0012217305
2022-03-17T15:04:53-03:00,57.0,0.03734684,914.7637,304.0,79.0,0.0,0.0,6182575.0,6284063.0,0.0,-1.70946,-1.0127473,9.679757,0.0012217305,0.0012217305,-0.0012217305
2022-03-17T15:04:53-03:00,57.0,0.03750229,914.7637,304.0,79.0,0.0,0.0,6183116.0,6284249.0,0.0,-1.7381904,-0.9600749,9.696517,-0.0036651916,0.007330383,0.0
2022-03-17T15:04:53-03:00,57.0,0.03765011,914.73364,300.0,79.0,0.0,0.0,6183400.0,6284264.0,0.0,-1.7381904,-0.9600749,9.696517,-0.0036651916,0.007330383,0.0
2022-03-17T15:04:53-03:00,57.0,0.03779888,914.73364,300.0,79.0,0.0,0.0,6183807.0,6284271.0,0.0,-1.7381904,-0.9600749,9.696517,-0.0036651916,0.007330383,0.0
2022-03-17T15:04:53-03:00,57.0,0.037947655,914.73364,300.0,79.0,0.0,0.0,6184201.0,6284963.0,0.0,-1.6927006,-0.92176765,9.615114,0.007330383,0.0012217305,0.004886922
2022-03-17T15:04:53-03:00,57.0,0.03810501,914.73364,300.0,79.0,0.0,0.0,6183526.0,6285211.0,0.0,-1.6927006,-0.92176765,9.615114,0.007330383,0.0012217305,0.004886922
2022-03-17T15:04:53-03:00,57.0,0.038261414,914.8169,300.0,79.0,0.0,0.0,6184011.0,6284563.0,0.0,-1.6927006,-0.92176765,9.615114,0.007330383,0.0012217305,0.004886922
2022-03-17T15:04:53-03:00,57.0,0.038417816,914.8169,300.0,79.0,0.0,0.0,6182530.0,6283543.0,0.0,-1.7022774,-0.8810662,9.622296,0.0012217305,0.0,-0.0012217305
2022-03-17T15:04:53-03:00,57.0,0.038567543,914.8169,300.0,79.0,0.0,0.0,6181961.0,6282861.0,0.0,-1.7022774,-0.8810662,9.622296,0.0012217305,0.0,-0.0012217305
2022-03-17T15:04:54-03:00,57.0,0.03871727,914.8169,300.0,79.0,0.0,0.0,6181979.0,6282693.0,0.0,-1.7022774,-0.8810662,9.622296,0.0012217305,0.0,-0.0012217305
2022-03-17T15:04:54-03:00,57.0,0.038866043,914.75635,300.0,79.0,0.0,0.0,6182566.0,6283013.0,0.0,-1.7429788,-0.9816227,9.67018,0.0012217305,0.004886922,0.0
2022-03-17T15:04:54-03:00,57.0,0.039013863,914.75635,300.0,78.0,0.0,0.0,6182554.0,6283329.0,0.0,-1.7429788,-0.9816227,9.67018,0.0012217305,0.004886922,0.0
2022-03-17T15:04:54-03:00,57.0,0.039161682,914.75635,300.0,78.0,0.0,0.0,6182945.0,6283547.0,0.0,-1.7429788,-0.9816227,9.67018,0.0012217305,0.004886922,0.0
2022-03-17T15:04:54-03:00,57.0,0.0393095,914.75635,300.0,78.0,0.0,0.0,6183145.0,6283297.0,0.0,-1.721431,-0.89782566,9.679757,-0.002443461,0.0036651916,-0.0036651916
2022-03-17T15:04:54-03:00,57.0,0.039466858,914.7759,300.0,78.0,0.0,0.0,6182737.0,6283301.0,0.0,-1.721431,-0.89782566,9.679757,-0.002443461,0.0036651916,-0.0036651916
2022-03-17T15:04:54-03:00,57.0,0.039625168,914.7759,300.0,78.0,0.0,0.0,6183472.0,6283425.0,0.0,-1.721431,-0.89782566,9.679757,-0.002443461,0.0036651916,-0.0036651916
2022-03-17T15:04:54-03:00,57.0,0.039783478,914.7759,300.0,78.0,0.0,0.0,6183642.0,6284221.0,0.0,-1.6879122,-0.92416185,9.67018,0.0036651916,0.002443461,0.002443461
2022-03-17T15:04:54-03:00,57.0,0.039938927,914.7759,300.0,78.0,0.0,0.0,6184027.0,6284215.0,0.0,-1.6879122,-0.92416185,9.67018,0.0036651916,0.002443461,0.002443461
2022-03-17T15:04:54-03:00,57.0,0.040094376,914.801,300.0,78.0,0.0,0.0,6184380.0,6284582.0,0.0,-1.6879122,-0.92416185,9.67018,0.0036651916,0.002443461,0.002443461
2022-03-17T15:04:54-03:00,57.0,0.04024887,914.801,300.0,78.0,0.0,0.0,6184743.0,6284796.0,0.0,-1.757344,-0.90500826,9.648633,-0.0036651916,0.008552114,0.0
2022-03-17T15:04:54-03:00,57.0,0.040395737,914.801,300.0,78.0,0.0,0.0,6184557.0,6284376.0,0.0,-1.757344,-0.90500826,9.648633,-0.0036651916,0.008552114,0.0
2022-03-17T15:04:54-03:00,57.0,0.040543556,914.77734,300.0,78.0,0.0,0.0,6183149.0,6283430.0,0.0,-1.757344,-0.90500826,9.648633,-0.0036651916,0.008552114,0.0
2022-03-17T15:04:54-03:00,57.0,0.040693283,914.77734,300.0,78.0,0.0,0.0,6182699.0,6282673.0,0.0,-1.757344,-0.90500826,9.648633,-0.0036651916,0.008552114,0.0
2022-03-17T15:04:54-03:00,57.0,0.04084301,914.77734,300.0,78.0,0.0,0.0,6182496.0,6282704.0,0.0,-1.7022774,-0.8834604,9.583989,0.012217305,-0.008552114,0.0036651916
2022-03-17T15:04:54-03:00,57.0,0.040999413,914.77734,300.0,78.0,0.0,0.0,6183090.0,6283158.0,0.0,-1.7022774,-0.8834604,9.583989,0.012217305,-0.008552114,0.0036651916
2022-03-17T15:04:54-03:00,57.0,0.04115677,914.76294,300.0,78.0,0.0,0.0,6182906.0,6282769.0,0.0,-1.7022774,-0.8834604,9.583989,0.012217305,-0.008552114,0.0036651916
2022-03-17T15:04:54-03:00,57.0,0.04131317,914.76294,300.0,78.0,0.0,0.0,6183174.0,6282980.0,0.0,-1.6950948,-0.8738836,9.643845,0.010995574,-0.0012217305,0.0036651916
2022-03-17T15:04:54-03:00,57.0,0.041470528,914.76294,300.0,78.0,0.0,0.0,6183479.0,6282992.0,0.0,-1.6950948,-0.8738836,9.643845,0.010995574,-0.0012217305,0.0036651916
2022-03-17T15:04:54-03:00,57.0,0.041628838,914.76294,300.0,78.0,0.0,0.0,6182927.0,6282946.0,0.0,-1.6950948,-0.8738836,9.643845,0.010995574,-0.0012217305,0.0036651916
2022-03-17T15:04:55-03:00,57.0,0.041787148,914.79004,300.0,78.0,0.0,0.0,6183460.0,6283286.0,0.0,-1.7381904,-0.8643068,9.65821,-0.0012217305,0.0012217305,0.0
2022-03-17T15:04:55-03:00,57.0,0.041936874,914.79004,300.0,78.0,0.0,0.0,6183275.0,6282861.0,0.0,-1.7381904,-0.8643068,9.65821,-0.0012217305,0.0012217305,0.0
2022-03-17T15:04:55-03:00,57.0,0.0420866,914.79004,300.0,77.0,0.0,0.0,6184111.0,6283140.0,0.0,-1.7381904,-0.8643068,9.65821,-0.0012217305,0.0012217305,0.0
2022-03-17T15:04:55-03:00,57.0,0.04223442,914.79004,300.0,77.0,0.0,0.0,6184298.0,6283773.0,0.0,-1.7070658,-0.8810662,9.634268,0.007330383,0.0,0.002443461
2022-03-17T15:04:55-03:00,57.0,0.042381287,914.7666,304.0,77.0,0.0,0.0,6183965.0,6283663.0,0.0,-1.7070658,-0.8810662,9.634268,0.007330383,0.0,0.002443461
2022-03-17T15:04:55-03:00,57.0,0.042528152,914.7666,304.0,77.0,0.0,0.0,6183567.0,6282151.0,0.0,-1.7070658,-0.8810662,9.634268,0.007330383,0.0,0.002443461
2022-03-17T15:04:55-03:00,57.0,0.04267502,914.7666,304.0,77.0,0.0,0.0,6182547.0,6281807.0,0.0,-1.7022774,-0.93852705,9.67018,-0.007330383,0.004886922,-0.0012217305
2022-03-17T15:04:55-03:00,57.0,0.04283142,914.7666,304.0,77.0,0.0,0.0,6182298.0,6281474.0,0.0,-1.7022774,-0.93852705,9.67018,-0.007330383,0.004886922,-0.0012217305
2022-03-17T15:04:55-03:00,57.0,0.042987823,914.7744,304.0,77.0,0.0,0.0,6183062.0,6282129.0,0.0,-1.7022774,-0.93852705,9.67018,-0.007330383,0.004886922,-0.0012217305
2022-03-17T15:04:55-03:00,57.0,0.04314518,914.7744,304.0,77.0,0.0,0.0,6183164.0,6281808.0,0.0,-1.733402,-0.8858546,9.622296,-0.0061086523,0.002443461,0.0012217305
2022-03-17T15:04:55-03:00,57.0,0.04330063,914.7744,304.0,77.0,0.0,0.0,6182996.0,6281947.0,0.0,-1.733402,-0.8858546,9.622296,-0.0061086523,0.002443461,0.0012217305
2022-03-17T15:04:55-03:00,57.0,0.043456078,914.7744,304.0,77.0,0.0,0.0,6183416.0,6281875.0,0.0,-1.733402,-0.8858546,9.622296,-0.0061086523,0.002443461,0.0012217305
2022-03-17T15:04:55-03:00,57.0,0.04361248,914.7744,304.0,77.0,0.0,0.0,6183063.0,6282287.0,0.0,-1.733402,-0.8858546,9.622296,-0.0061086523,0.002443461,0.0012217305
2022-03-17T15:04:55-03:00,57.0,0.04376793,914.7739,300.0,77.0,0.0,0.0,6183186.0,6281343.0,0.0,-1.745373,-0.82360536,9.648633,-0.0036651916,0.002443461,-0.002443461
2022-03-17T15:04:55-03:00,57.0,0.04392433,914.7739,300.0,77.0,0.0,0.0,6183595.0,6281813.0,0.0,-1.745373,-0.82360536,9.648633,-0.0036651916,0.002443461,-0.002443461
2022-03-17T15:04:55-03:00,57.0,0.044080734,914.7739,300.0,77.0,0.0,0.0,6183763.0,6282034.0,0.0,-1.745373,-0.82360536,9.648633,-0.0036651916,0.002443461,-0.002443461
2022-03-17T15:04:55-03:00,57.0,0.04423809,914.78394,296.0,77.0,0.0,0.0,6184041.0,6282239.0,0.0,-1.6950948,-0.85473,9.627085,-0.0036651916,0.0036651916,0.0012217305
2022-03-17T15:04:55-03:00,57.0,0.044394493,914.78394,296.0,77.0,0.0,0.0,6183915.0,6282489.0,0.0,-1.6950948,-0.85473,9.627085,-0.0036651916,0.0036651916,0.0012217305
2022-03-17T15:04:55-03:00,57.0,0.04455185,914.78394,296.0,77.0,0.0,0.0,6184223.0,6282620.0,0.0,-1.6950948,-0.8643068,9.665392,0.0061086523,-0.007330383,0.0
2022-03-17T15:04:55-03:00,57.0,0.044700623,914.77246,296.0,77.0,0.0,0.0,6184365.0,6282927.0,0.0,-1.6950948,-0.8643068,9.665392,0.0061086523,-0.007330383,0.0
2022-03-17T15:04:56-03:00,57.0,0.04485035,914.77246,296.0,77.0,0.0,0.0,6183595.0,6281152.0,0.0,-1.6950948,-0.8643068,9.665392,0.0061086523,-0.007330383,0.0
2022-03-17T15:04:56-03:00,57.0,0.044999123,914.77246,296.0,77.0,0.0,0.0,6182547.0,6280719.0,0.0,-1.7166426,-0.8882488,9.579201,-0.002443461,0.002443461,-0.0012217305
2022-03-17T15:04:56-03:00,57.0,0.045157433,914.77246,296.0,77.0,0.0,0.0,6182389.0,6280466.0,0.0,-1.7166426,-0.8882488,9.579201,-0.002443461,0.002443461,-0.0012217305
2022-03-17T15:04:56-03:00,57.0,0.045315742,914.77856,296.0,77.0,0.0,0.0,6183866.0,6281146.0,0.0,-1.7166426,-0.8882488,9.579201,-0.002443461,0.002443461,-0.0012217305
2022-03-17T15:04:56-03:00,57.0,0.045474052,914.77856,296.0,77.0,0.0,0.0,6183506.0,6281090.0,0.0,-1.7166426,-0.8882488,9.579201,-0.002443461,0.002443461,-0.0012217305
2022-03-17T15:04:56-03:00,57.0,0.045632362,914.77856,296.0,77.0,0.0,0.0,6183707.0,6280414.0,0.0,-1.7741034,-0.8834604,9.682152,-0.010995574,0.0036651916,-0.0036651916
2022-03-17T15:04:56-03:00,57.0,0.045791626,914.77856,296.0,77.0,0.0,0.0,6183829.0,6280562.0,0.0,-1.7741034,-0.8834604,9.682152,-0.010995574,0.0036651916,-0.0036651916
2022-03-17T15:04:56-03:00,57.0,0.04595089,914.76025,292.0,77.0,0.0,0.0,6184030.0,6281155.0,0.0,-1.7741034,-0.8834604,9.682152,-0.010995574,0.0036651916,-0.0036651916
2022-03-17T15:04:56-03:00,57.0,0.0461092,914.76025,292.0,77.0,0.0,0.0,6184279.0,6281628.0,0.0,-1.7238252,-0.8690952,9.603143,-0.0036651916,0.002443461,-0.0012217305
2022-03-17T15:04:56-03:00,57.0,0.046266556,914.76025,292.0,77.0,0.0,0.0,6184733.0,6281582.0,0.0,-1.7238252,-0.8690952,9.603143,-0.0036651916,0.002443461,-0.0012217305
2022-03-17T15:04:56-03:00,57.0,0.04642582,914.76025,292.0,77.0,0.0,0.0,6184621.0,6281797.0,0.0,-1.7238252,-0.8690952,9.603143,-0.0036651916,0.002443461,-0.0012217305
2022-03-17T15:04:56-03:00,57.0,0.04658413,914.7632,292.0,77.0,0.0,0.0,6183802.0,6280808.0,0.0,-1.721431,-1.0127473,9.61272,-0.0036651916,-0.002443461,0.002443461
2022-03-17T15:04:56-03:00,57.0,0.046738625,914.7632,292.0,77.0,0.0,0.0,6182920.0,6279944.0,0.0,-1.721431,-1.0127473,9.61272,-0.0036651916,-0.002443461,0.002443461
2022-03-17T15:04:56-03:00,57.0,0.046894073,914.7632,292.0,77.0,0.0,0.0,6182875.0,6279360.0,0.0,-1.721431,-1.0127473,9.61272,-0.0036651916,-0.002443461,0.002443461
2022-03-17T15:04:56-03:00,57.0,0.047049522,914.7632,292.0,77.0,0.0,0.0,6182735.0,6279061.0,0.0,-1.7046716,-0.8762778,9.689334,0.0,0.0,0.002443461
2022-03-17T15:04:56-03:00,57.0,0.04718876,914.7805,292.0,77.0,0.0,0.0,6183735.0,6279541.0,0.0,-1.7046716,-0.8762778,9.689334,0.0,0.0,0.002443461
2022-03-17T15:04:56-03:00,57.0,0.04732704,914.7805,292.0,77.0,0.0,0.0,6183416.0,6280049.0,0.0,-1.7046716,-0.8762778,9.689334,0.0,0.0,0.002443461
2022-03-17T15:04:56-03:00,57.0,0.047465324,914.7805,292.0,77.0,0.0,0.0,6183931.0,6279676.0,0.0,-1.6591818,-0.866701,9.682152,-0.012217305,0.0036651916,-0.004886922
2022-03-17T15:04:56-03:00,57.0,0.047621727,914.7805,292.0,77.0,0.0,0.0,6183597.0,6279524.0,0.0,-1.6591818,-0.866701,9.682152,-0.012217305,0.0036651916,-0.004886922
2022-03-17T15:04:57-03:00,57.0,0.04777813,914.77637,292.0,77.0,0.0,0.0,6183265.0,6279400.0,0.0,-1.6591818,-0.866701,9.682152,-0.012217305,0.0036651916,-0.004886922
2022-03-17T15:04:57-03:00,57.0,0.047934532,914.77637,292.0,78.0,0.0,0.0,6183924.0,6279416.0,0.0,-1.7262194,-0.92416185,9.662998,0.0,0.002443461,0.002443461
2022-03-17T15:04:57-03:00,57.0,0.048083305,914.77637,292.0,78.0,0.0,0.0,6184487.0,6280246.0,0.0,-1.7262194,-0.92416185,9.662998,0.0,0.002443461,0.002443461
2022-03-17T15:04:57-03:00,57.0,0.04823208,914.77637,292.0,78.0,0.0,0.0,6184312.0,6280049.0,0.0,-1.7262194,-0.92416185,9.662998,0.0,0.002443461,0.002443461
2022-03-17T15:04:57-03:00,57.0,0.048379898,914.7842,288.0,78.0,0.0,0.0,6184093.0,6280348.0,0.0,-1.8076223,-0.9864111,9.677363,-0.0061086523,0.004886922,-0.0012217305
2022-03-17T15:04:57-03:00,57.0,0.048538208,914.7842,288.0,78.0,0.0,0.0,6183463.0,6279902.0,0.0,-1.8076223,-0.9864111,9.677363,-0.0061086523,0.004886922,-0.0012217305
2022-03-17T15:04:57-03:00,57.0,0.048696518,914.7842,288.0,78.0,0.0,0.0,6182652.0,6278354.0,0.0,-1.8076223,-0.9864111,9.677363,-0.0061086523,0.004886922,-0.0012217305
2022-03-17T15:04:57-03:00,57.0,0.048854828,914.7842,288.0,78.0,0.0,0.0,6182178.0,6277829.0,0.0,-1.6927006,-0.90740246,9.665392,0.007330383,-0.002443461,0.004886922
2022-03-17T15:04:57-03:00,57.0,0.04901123,914.76807,284.0,78.0,0.0,0.0,6182075.0,6277556.0,0.0,-1.6927006,-0.90740246,9.665392,0.007330383,-0.002443461,0.004886922
2022-03-17T15:04:57-03:00,57.0,0.049167633,914.76807,284.0,78.0,0.0,0.0,6182502.0,6278055.0,0.0,-1.6927006,-0.90740246,9.665392,0.007330383,-0.002443461,0.004886922
2022-03-17T15:04:57-03:00,57.0,0.04932499,914.76807,284.0,78.0,0.0,0.0,6182905.0,6278626.0,0.0,-1.6950948,-0.92895025,9.67018,0.0012217305,0.0,0.002443461
2022-03-17T15:04:57-03:00,57.0,0.04947281,914.78613,276.0,78.0,0.0,0.0,6183204.0,6277733.0,0.0,-1.6950948,-0.92895025,9.67018,0.0012217305,0.0,0.002443461
2022-03-17T15:04:57-03:00,57.0,0.04962063,914.78613,276.0,78.0,0.0,0.0,6183176.0,6278132.0,0.0,-1.6950948,-0.92895025,9.67018,0.0012217305,0.0,0.002443461
2022-03-17T15:04:57-03:00,57.0,0.049768448,914.78613,276.0,78.0,0.0,0.0,6183149.0,6278502.0,0.0,-1.7262194,-0.93613285,9.631873,0.0,0.0012217305,0.0012217305
2022-03-17T15:04:57-03:00,57.0,0.04991913,914.78613,276.0,78.0,0.0,0.0,6183265.0,6278629.0,0.0,-1.7262194,-0.93613285,9.631873,0.0,0.0012217305,0.0012217305
2022-03-17T15:04:57-03:00,57.0,0.050068855,914.76636,272.0,78.0,0.0,0.0,6183653.0,6278974.0,0.0,-1.7262194,-0.93613285,9.631873,0.0,0.0012217305,0.0012217305
2022-03-17T15:04:57-03:00,57.0,0.050219536,914.76636,272.0,78.0,0.0,0.0,6183980.0,6279114.0,0.0,-1.6543933,-0.92176765,9.619903,-0.0012217305,0.0012217305,0.002443461
2022-03-17T15:04:57-03:00,57.0,0.0503788,914.76636,272.0,78.0,0.0,0.0,6183669.0,6279113.0,0.0,-1.6543933,-0.92176765,9.619903,-0.0012217305,0.0012217305,0.002443461
2022-03-17T15:04:57-03:00,57.0,0.050536156,914.76636,272.0,78.0,0.0,0.0,6183818.0,6279259.0,0.0,-1.6543933,-0.92176765,9.619903,-0.0012217305,0.0012217305,0.002443461
2022-03-17T15:04:58-03:00,57.0,0.05069542,914.78955,264.0,78.0,0.0,0.0,6183038.0,6278033.0,0.0,-1.6543933,-0.92176765,9.619903,-0.0012217305,0.0012217305,0.002443461
2022-03-17T15:04:58-03:00,57.0,0.05085373,914.78955,264.0,78.0,0.0,0.0,6181260.0,6276342.0,0.0,-1.6807296,-0.8714894,9.660604,0.007330383,-0.0061086523,0.002443461
2022-03-17T15:04:58-03:00,57.0,0.05101013,914.78955,264.0,79.0,0.0,0.0,6181415.0,6276107.0,0.0,-1.6807296,-0.8714894,9.660604,0.007330383,-0.0061086523,0.002443461
2022-03-17T15:04:58-03:00,57.0,0.051166534,914.78955,264.0,79.0,0.0,0.0,6181098.0,6275922.0,0.0,-1.6807296,-0.8714894,9.660604,0.007330383,-0.0061086523,0.002443461
2022-03-17T15:04:58-03:00,57.0,0.05132389,914.77637,252.0,79.0,0.0,0.0,6181384.0,6276325.0,0.0,-1.6950948,-0.90261406,9.660604,0.007330383,0.002443461,0.004886922
2022-03-17T15:04:58-03:00,57.0,0.05147934,914.77637,252.0,79.0,0.0,0.0,6181699.0,6276613.0,0.0,-1.6950948,-0.90261406,9.660604,0.007330383,0.002443461,0.004886922
2022-03-17T15:04:58-03:00,57.0,0.05163479,914.77637,252.0,79.0,0.0,0.0,6182067.0,6276255.0,0.0,-1.6950948,-0.90261406,9.660604,0.007330383,0.002443461,0.004886922
2022-03-17T15:04:58-03:00,57.0,0.051790237,914.77637,252.0,79.0,0.0,0.0,6181555.0,6276594.0,0.0,-1.721431,-0.8858546,9.629479,-0.015882496,0.0061086523,-0.004886922
2022-03-17T15:04:58-03:00,57.0,0.051947594,914.7661,240.0,79.0,0.0,0.0,6182253.0,6276497.0,0.0,-1.721431,-0.8858546,9.629479,-0.015882496,0.0061086523,-0.004886922
2022-03-17T15:04:58-03:00,57.0,0.052103996,914.7661,240.0,79.0,0.0,0.0,6182437.0,6277045.0,0.0,-1.721431,-0.8858546,9.629479,-0.015882496,0.0061086523,-0.004886922
2022-03-17T15:04:58-03:00,57.0,0.0522604,914.7661,240.0,79.0,0.0,0.0,6182176.0,6277089.0,0.0,-1.7381904,-0.8738836,9.607931,0.002443461,0.0,0.002443461
2022-03-17T15:04:58-03:00,57.0,0.052405357,914.7661,240.0,79.0,0.0,0.0,6182832.0,6277259.0,0.0,-1.7381904,-0.8738836,9.607931,0.002443461,0.0,0.002443461
2022-03-17T15:04:58-03:00,57.0,0.052552223,914.76294,232.0,79.0,0.0,0.0,6182767.0,6277346.0,0.0,-1.7381904,-0.8738836,9.607931,0.002443461,0.0,0.002443461
2022-03-17T15:04:58-03:00,57.0,0.052700043,914.76294,232.0,79.0,0.0,0.0,6182442.0,6277673.0,0.0,-1.7286136,-0.91219085,9.67018,-0.0036651916,-0.002443461,0.002443461
2022-03-17T15:04:58-03:00,57.0,0.052858353,914.76294,232.0,79.0,0.0,0.0,6183297.0,6277257.0,0.0,-1.7286136,-0.91219085,9.67018,-0.0036651916,-0.002443461,0.002443461
2022-03-17T15:04:58-03:00,57.0,0.053016663,914.76294,232.0,79.0,0.0,0.0,6182608.0,6277020.0,0.0,-1.7286136,-0.91219085,9.67018,-0.0036651916,-0.002443461,0.002443461
2022-03-17T15:04:58-03:00,57.0,0.053174973,914.77856,220.0,79.0,0.0,0.0,6181270.0,6275789.0,0.0,-1.7046716,-0.7661445,9.674969,0.009773844,-0.002443461,0.0036651916
2022-03-17T15:04:58-03:00,57.0,0.05333233,914.77856,220.0,79.0,0.0,0.0,6180437.0,6274195.0,0.0,-1.7046716,-0.7661445,9.674969,0.009773844,-0.002443461,0.0036651916
2022-03-17T15:04:58-03:00,57.0,0.05348873,914.77856,220.0,79.0,0.0,0.0,6180413.0,6273892.0,0.0,-1.7046716,-0.7661445,9.674969,0.009773844,-0.002443461,0.0036651916
2022-03-17T15:04:58-03:00,57.0,0.053645134,914.77856,220.0,79.0,0.0,0.0,6180247.0,6274398.0,0.0,-1.7046716,-0.866701,9.636662,0.002443461,0.007330383,0.0
2022-03-17T15:04:59-03:00,57.0,0.053792,914.7688,208.0,79.0,0.0,0.0,6180759.0,6274877.0,0.0,-1.7046716,-0.866701,9.636662,0.002443461,0.007330383,0.0
2022-03-17T15:04:59-03:00,57.0,0.05393505,914.7688,208.0,80.0,0.0,0.0,6180997.0,6274344.0,0.0,-1.7046716,-0.866701,9.636662,0.002443461,0.007330383,0.0
2022-03-17T15:04:59-03:00,57.0,0.05408001,914.7688,208.0,80.0,0.0,0.0,6181267.0,6275058.0,0.0,-1.721431,-0.8331822,9.627085,-0.002443461,0.0,-0.002443461
2022-03-17T15:04:59-03:00,57.0,0.054226875,914.7617,196.0,80.0,0.0,0.0,6181147.0,6275147.0,0.0,-1.721431,-0.8331822,9.627085,-0.002443461,0.0,-0.002443461
2022-03-17T15:04:59-03:00,57.0,0.054374695,914.7617,196.0,80.0,0.0,0.0,6181349.0,6275160.0,0.0,-1.721431,-0.8331822,9.627085,-0.002443461,0.0,-0.002443461
2022-03-17T15:04:59-03:00,57.0,0.054522514,914.7617,196.0,80.0,0.0,0.0,6181367.0,6275419.0,0.0,-1.697489,-0.7613561,9.639056,0.002443461,0.0012217305,0.002443461
2022-03-17T15:04:59-03:00,57.0,0.05467701,914.7617,196.0,80.0,0.0,0.0,6181957.0,6275709.0,0.0,-1.697489,-0.7613561,9.639056,0.002443461,0.0012217305,0.002443461
2022-03-17T15:04:59-03:00,57.0,0.05483055,914.7898,184.0,80.0,0.0,0.0,6181950.0,6276107.0,0.0,-1.697489,-0.7613561,9.639056,0.002443461,0.0012217305,0.002443461
2022-03-17T15:04:59-03:00,57.0,0.054984093,914.7898,184.0,80.0,0.0,0.0,6182343.0,6276242.0,0.0,-1.697489,-0.7613561,9.639056,0.002443461,0.0012217305,0.002443461
2022-03-17T15:04:59-03:00,57.0,0.055138588,914.7898,184.0,80.0,0.0,0.0,6182919.0,6276481.0,0.0,-1.6903064,-0.8499416,9.631873,-0.010995574,0.0,-0.0061086523
2022-03-17T15:04:59-03:00,57.0,0.055288315,914.7898,184.0,80.0,0.0,0.0,6182948.0,6276949.0,0.0,-1.6903064,-0.8499416,9.631873,-0.010995574,0.0,-0.0061086523
2022-03-17T15:04:59-03:00,57.0,0.05543804,914.7866,180.0,80.0,0.0,0.0,6183151.0,6276607.0,0.0,-1.6903064,-0.8499416,9.631873,-0.010995574,0.0,-0.0061086523
2022-03-17T15:04:59-03:00,57.0,0.055586815,914.7866,180.0,80.0,0.0,0.0,6181859.0,6275442.0,0.0,-1.7477672,-0.8882488,9.615114,-0.0012217305,-0.0012217305,0.0036651916
2022-03-17T15:04:59-03:00,57.0,0.05574608,914.7866,180.0,80.0,0.0,0.0,6180635.0,6274098.0,0.0,-1.7477672,-0.8882488,9.615114,-0.0012217305,-0.0012217305,0.0036651916
2022-03-17T15:04:59-03:00,57.0,0.05590439,914.7866,180.0,80.0,0.0,0.0,6180206.0,6273880.0,0.0,-1.7477672,-0.8882488,9.615114,-0.0012217305,-0.0012217305,0.0036651916
2022-03-17T15:04:59-03:00,57.0,0.0560627,914.77075,168.0,80.0,0.0,0.0,6180635.0,6273366.0,0.0,-1.6950948,-0.89782566,9.61272,-0.002443461,-0.0012217305,0.002443461
2022-03-17T15:04:59-03:00,57.0,0.0562191,914.77075,168.0,80.0,0.0,0.0,6180462.0,6274190.0,0.0,-1.6950948,-0.89782566,9.61272,-0.002443461,-0.0012217305,0.002443461
2022-03-17T15:04:59-03:00,57.0,0.056375504,914.77075,168.0,80.0,0.0,0.0,6181340.0,6274197.0,0.0,-1.6950948,-0.89782566,9.61272,-0.002443461,-0.0012217305,0.002443461
2022-03-17T15:04:59-03:00,57.0,0.056533813,914.77075,168.0,80.0,0.0,0.0,6181424.0,6273912.0,0.0,-1.7501614,-0.878672,9.583989,-0.0061086523,0.004886922,-0.002443461
2022-03-17T15:05:00-03:00,57.0,0.05669117,914.7976,160.0,80.0,0.0,0.0,6181370.0,6274242.0,0.0,-1.7501614,-0.878672,9.583989,-0.0061086523,0.004886922,-0.002443461
2022-03-17T15:05:00-03:00,57.0,0.05684662,914.7976,160.0,81.0,0.0,0.0,6181982.0,6274478.0,0.0,-1.7501614,-0.878672,9.583989,-0.0061086523,0.004886922,-0.002443461
2022-03-17T15:05:00-03:00,57.0,0.057002068,914.7976,160.0,81.0,0.0,0.0,6182268.0,6274328.0,0.0,-1.757344,-0.91219085,9.615114,-0.008552114,0.0012217305,-0.002443461
2022-03-17T15:05:00-03:00,57.0,0.057159424,914.7976,160.0,81.0,0.0,0.0,6182488.0,6274940.0,0.0,-1.757344,-0.91219085,9.615114,-0.008552114,0.0012217305,-0.002443461
2022-03-17T15:05:00-03:00,57.0,0.05731678,914.78174,156.0,81.0,0.0,0.0,6182651.0,6275313.0,0.0,-1.757344,-0.91219085,9.615114,-0.008552114,0.0012217305,-0.002443461
2022-03-17T15:05:00-03:00,57.0,0.057474136,914.78174,156.0,81.0,0.0,0.0,6182555.0,6274912.0,0.0,-1.7956513,-0.9528923,9.653421,-0.002443461,0.002443461,0.0
2022-03-17T15:05:00-03:00,57.0,0.05762291,914.78174,156.0,81.0,0.0,0.0,6183123.0,6275559.0,0.0,-1.7956513,-0.9528923,9.653421,-0.002443461,0.002443461,0.0
2022-03-17T15:05:00-03:00,57.0,0.05777073,914.78174,156.0,81.0,0.0,0.0,6183138.0,6275521.0,0.0,-1.7956513,-0.9528923,9.653421,-0.002443461,0.002443461,0.0
2022-03-17T15:05:00-03:00,57.0,0.05791855,914.7932,152.0,81.0,0.0,0.0,6183788.0,6275945.0,0.0,-1.7381904,-0.8882488,9.710882,-0.0061086523,0.004886922,0.0012217305
2022-03-17T15:05:00-03:00,57.0,0.05807495,914.7932,152.0,81.0,0.0,0.0,6183040.0,6275556.0,0.0,-1.7381904,-0.8882488,9.710882,-0.0061086523,0.004886922,0.0012217305
2022-03-17T15:05:00-03:00,57.0,0.058231354,914.7932,152.0,81.0,0.0,0.0,6181921.0,6274829.0,0.0,-1.7381904,-0.8882488,9.710882,-0.0061086523,0.004886922,0.0012217305
2022-03-17T15:05:00-03:00,57.0,0.05838871,914.7932,152.0,81.0,0.0,0.0,6181413.0,6273160.0,0.0,-1.7477672,-0.9888053,9.7324295,-0.002443461,0.002443461,0.0
2022-03-17T15:05:00-03:00,57.0,0.05853653,914.7732,152.0,81.0,0.0,0.0,6181000.0,6273257.0,0.0,-1.7477672,-0.9888053,9.7324295,-0.002443461,0.002443461,0.0
2022-03-17T15:05:00-03:00,57.0,0.05868435,914.7732,152.0,81.0,0.0,0.0,6181687.0,6273482.0,0.0,-1.7477672,-0.9888053,9.7324295,-0.002443461,0.002443461,0.0
2022-03-17T15:05:00-03:00,57.0,0.05883217,914.7732,152.0,81.0,0.0,0.0,6181607.0,6273786.0,0.0,-1.7046716,-0.90740246,9.694122,-0.002443461,-0.002443461,0.0036651916
2022-03-17T15:05:00-03:00,57.0,0.058989525,914.77075,148.0,81.0,0.0,0.0,6182275.0,6273759.0,0.0,-1.7046716,-0.90740246,9.694122,-0.002443461,-0.002443461,0.0036651916
2022-03-17T15:05:00-03:00,57.0,0.05914879,914.77075,148.0,81.0,0.0,0.0,6181833.0,6274158.0,0.0,-1.7046716,-0.90740246,9.694122,-0.002443461,-0.002443461,0.0036651916
2022-03-17T15:05:00-03:00,57.0,0.0593071,914.77075,148.0,81.0,0.0,0.0,6182341.0,6273777.0,0.0,-1.6711528,-0.89543146,9.639056,-0.004886922,0.004886922,0.0
2022-03-17T15:05:00-03:00,57.0,0.059454918,914.77075,148.0,81.0,0.0,0.0,6182397.0,6274306.0,0.0,-1.6711528,-0.89543146,9.639056,-0.004886922,0.004886922,0.0
2022-03-17T15:05:01-03:00,57.0,0.059604645,914.78125,148.0,81.0,0.0,0.0,6183012.0,6274576.0,0.0,-1.6711528,-0.89543146,9.639056,-0.004886922,0.004886922,0.0
2022-03-17T15:05:01-03:00,57.0,0.05975437,914.78125,148.0,81.0,0.0,0.0,6182944.0,6274595.0,0.0,-1.7046716,-0.9744401,9.665392,-0.0036651916,0.0036651916,0.0
2022-03-17T15:05:01-03:00,57.0,0.0599041,914.78125,148.0,82.0,0.0,0.0,6183493.0,6275131.0,0.0,-1.7046716,-0.9744401,9.665392,-0.0036651916,0.0036651916,0.0
2022-03-17T15:05:01-03:00,57.0,0.06005287,914.78125,148.0,82.0,0.0,0.0,6183565.0,6275019.0,0.0,-1.7046716,-0.9744401,9.665392,-0.0036651916,0.0036651916,0.0
2022-03-17T15:05:01-03:00,57.0,0.0602026,914.7888,144.0,82.0,0.0,0.0,6183316.0,6275433.0,0.0,-1.70946,-0.92895025,9.682152,-0.002443461,0.0036651916,0.0012217305
2022-03-17T15:05:01-03:00,57.0,0.060357094,914.7888,144.0,82.0,0.0,0.0,6184335.0,6275655.0,0.0,-1.70946,-0.92895025,9.682152,-0.002443461,0.0036651916,0.0012217305
2022-03-17T15:05:01-03:00,57.0,0.060513496,914.7888,144.0,82.0,0.0,0.0,6183298.0,6275347.0,0.0,-1.70946,-0.92895025,9.682152,-0.002443461,0.0036651916,0.0012217305
2022-03-17T15:05:01-03:00,57.0,0.0606699,914.7888,144.0,82.0,0.0,0.0,6182428.0,6273979.0,0.0,-1.70946,-0.92895025,9.682152,-0.002443461,0.0036651916,0.0012217305
2022-03-17T15:05:01-03:00,57.0,0.060824394,914.76514,144.0,82.0,0.0,0.0,6181727.0,6272582.0,0.0,-1.7118542,-0.90979666,9.662998,-0.0036651916,0.0036651916,0.0
2022-03-17T15:05:01-03:00,57.0,0.06097603,914.76514,144.0,82.0,0.0,0.0,6181443.0,6272366.0,0.0,-1.7118542,-0.90979666,9.662998,-0.0036651916,0.0036651916,0.0
2022-03-17T15:05:01-03:00,57.0,0.06112671,914.76514,144.0,82.0,0.0,0.0,6181971.0,6273122.0,0.0,-1.7118542,-0.90979666,9.662998,-0.0036651916,0.0036651916,0.0
2022-03-17T15:05:01-03:00,57.0,0.06127739,914.76514,144.0,82.0,0.0,0.0,6182080.0,6273290.0,0.0,-1.7022774,-0.7445967,9.689334,-0.008552114,0.0061086523,-0.0012217305
2022-03-17T15:05:01-03:00,57.0,0.0614357,914.79834,144.0,82.0,0.0,0.0,6182496.0,6273483.0,0.0,-1.7022774,-0.7445967,9.689334,-0.008552114,0.0061086523,-0.0012217305
2022-03-17T15:05:01-03:00,57.0,0.061593056,914.79834,144.0,82.0,0.0,0.0,6182206.0,6273395.0,0.0,-1.7022774,-0.7445967,9.689334,-0.008552114,0.0061086523,-0.0012217305
2022-03-17T15:05:01-03:00,57.0,0.06175232,914.79834,144.0,82.0,0.0,0.0,6182475.0,6273406.0,0.0,-1.7357962,-0.89543146,9.634268,-0.0012217305,0.004886922,-0.0012217305
2022-03-17T15:05:01-03:00,57.0,0.061911583,914.79834,144.0,82.0,0.0,0.0,6182778.0,6273596.0,0.0,-1.7357962,-0.89543146,9.634268,-0.0012217305,0.004886922,-0.0012217305
2022-03-17T15:05:01-03:00,57.0,0.0620718,914.78687,144.0,82.0,0.0,0.0,6183369.0,6274401.0,0.0,-1.7357962,-0.89543146,9.634268,-0.0012217305,0.004886922,-0.0012217305
2022-03-17T15:05:01-03:00,57.0,0.06223011,914.78687,144.0,82.0,0.0,0.0,6183283.0,6274320.0,0.0,-1.7070658,-0.8834604,9.639056,0.0,0.007330383,0.0
2022-03-17T15:05:01-03:00,57.0,0.062369347,914.78687,144.0,82.0,0.0,0.0,6183573.0,6274940.0,0.0,-1.7070658,-0.8834604,9.639056,0.0,0.007330383,0.0
2022-03-17T15:05:02-03:00,57.0,0.06250954,914.7759,144.0,82.0,0.0,0.0,6184115.0,6275125.0,0.0,-1.7070658,-0.8834604,9.639056,0.0,0.007330383,0.0
2022-03-17T15:05:02-03:00,57.0,0.06264782,914.7759,144.0,82.0,0.0,0.0,6183734.0,6275487.0,0.0,-1.6903064,-0.8810662,9.662998,-0.004886922,0.002443461,-0.002443461
2022-03-17T15:05:02-03:00,57.0,0.06280327,914.7759,144.0,81.0,0.0,0.0,6184924.0,6275434.0,0.0,-1.6903064,-0.8810662,9.662998,-0.004886922,0.002443461,-0.002443461
2022-03-17T15:05:02-03:00,57.0,0.06295872,914.7759,144.0,81.0,0.0,0.0,6184889.0,6276060.0,0.0,-1.6903064,-0.8810662,9.662998,-0.004886922,0.002443461,-0.002443461
2022-03-17T15:05:02-03:00,57.0,0.063114166,914.7883,144.0,81.0,0.0,0.0,6184094.0,6275527.0,0.0,-1.7501614,-0.89064306,9.634268,-0.018325957,0.0036651916,-0.002443461
2022-03-17T15:05:02-03:00,57.0,0.063272476,914.7883,144.0,81.0,0.0,0.0,6181868.0,6273139.0,0.0,-1.7501614,-0.89064306,9.634268,-0.018325957,0.0036651916,-0.002443461
2022-03-17T15:05:02-03:00,57.0,0.063430786,914.7883,144.0,81.0,0.0,0.0,6181032.0,6272216.0,0.0,-1.7501614,-0.89064306,9.634268,-0.018325957,0.0036651916,-0.002443461
2022-03-17T15:05:02-03:00,57.0,0.063589096,914.7883,144.0,81.0,0.0,0.0,6181977.0,6272358.0,0.0,-1.6519991,-0.8619126,9.725247,0.002443461,-0.0012217305,0.002443461
2022-03-17T15:05:02-03:00,57.0,0.0637455,914.7825,144.0,81.0,0.0,0.0,6182190.0,6272909.0,0.0,-1.6519991,-0.8619126,9.725247,0.002443461,-0.0012217305,0.002443461
2022-03-17T15:05:02-03:00,57.0,0.063899994,914.7825,144.0,81.0,0.0,0.0,6182118.0,6273171.0,0.0,-1.6519991,-0.8619126,9.725247,0.002443461,-0.0012217305,0.002443461
2022-03-17T15:05:02-03:00,57.0,0.0640564,914.7825,144.0,81.0,0.0,0.0,6182110.0,6273179.0,0.0,-1.7070658,-0.8523358,9.639056,-0.0036651916,0.0036651916,-0.0036651916
2022-03-17T15:05:02-03:00,57.0,0.06421375,914.7825,144.0,81.0,0.0,0.0,6182093.0,6273176.0,0.0,-1.7070658,-0.8523358,9.639056,-0.0036651916,0.0036651916,-0.0036651916
2022-03-17T15:05:02-03:00,57.0,0.06437206,914.75806,144.0,81.0,0.0,0.0,6182071.0,6273117.0,0.0,-1.7070658,-0.8523358,9.639056,-0.0036651916,0.0036651916,-0.0036651916
2022-03-17T15:05:02-03:00,57.0,0.06453133,914.75806,144.0,81.0,0.0,0.0,6182724.0,6273630.0,0.0,-1.6998832,-0.9696517,9.65821,0.0061086523,0.002443461,0.0036651916
2022-03-17T15:05:02-03:00,57.0,0.064686775,914.75806,144.0,81.0,0.0,0.0,6182806.0,6273752.0,0.0,-1.6998832,-0.9696517,9.65821,0.0061086523,0.002443461,0.0036651916
2022-03-17T15:05:02-03:00,57.0,0.06484318,914.75806,144.0,81.0,0.0,0.0,6183255.0,6274248.0,0.0,-1.6998832,-0.9696517,9.65821,0.0061086523,0.002443461,0.0036651916
2022-03-17T15:05:02-03:00,57.0,0.06499863,914.76416,144.0,81.0,0.0,0.0,6183095.0,6274417.0,0.0,-1.7429788,-0.8523358,9.667787,0.0012217305,0.002443461,-0.0012217305
2022-03-17T15:05:02-03:00,57.0,0.06515598,914.76416,144.0,81.0,0.0,0.0,6183338.0,6274674.0,0.0,-1.7429788,-0.8523358,9.667787,0.0012217305,0.002443461,-0.0012217305
2022-03-17T15:05:02-03:00,57.0,0.06531334,914.76416,144.0,81.0,0.0,0.0,6183742.0,6274548.0,0.0,-1.7429788,-0.8523358,9.667787,0.0012217305,0.002443461,-0.0012217305
2022-03-17T15:05:02-03:00,57.0,0.065470695,914.76416,144.0,81.0,0.0,0.0,6184246.0,6275077.0,0.0,-1.7525556,-0.79966336,9.7084875,0.0012217305,0.0036651916,0.0012217305
2022-03-17T15:05:03-03:00,57.0,0.06563091,914.761,144.0,81.0,0.0,0.0,6184002.0,6275296.0,0.0,-1.7525556,-0.79966336,9.7084875,0.0012217305,0.0036651916,0.0012217305
2022-03-17T15:05:03-03:00,57.0,0.06578827,914.761,144.0,79.0,0.0,0.0,6183932.0,6274881.0,0.0,-1.7525556,-0.79966336,9.7084875,0.0012217305,0.0036651916,0.0012217305
2022-03-17T15:05:03-03:00,57.0,0.065945625,914.761,144.0,79.0,0.0,0.0,6182560.0,6273147.0,0.0,-1.7286136,-0.8810662,9.624691,-0.004886922,0.0036651916,0.0
2022-03-17T15:05:03-03:00,57.0,0.066093445,914.761,144.0,79.0,0.0,0.0,6181963.0,6272191.0,0.0,-1.7286136,-0.8810662,9.624691,-0.004886922,0.0036651916,0.0
2022-03-17T15:05:03-03:00,57.0,0.066241264,914.79517,144.0,79.0,0.0,0.0,6181799.0,6272399.0,0.0,-1.7286136,-0.8810662,9.624691,-0.004886922,0.0036651916,0.0
2022-03-17T15:05:03-03:00,57.0,0.06639099,914.79517,144.0,79.0,0.0,0.0,6182084.0,6272844.0,0.0,-1.7717092,-0.8643068,9.631873,-0.009773844,0.004886922,-0.002443461
2022-03-17T15:05:03-03:00,57.0,0.066547394,914.79517,144.0,79.0,0.0,0.0,6182783.0,6273524.0,0.0,-1.7717092,-0.8643068,9.631873,-0.009773844,0.004886922,-0.002443461
2022-03-17T15:05:03-03:00,57.0,0.06670475,914.761,144.0,79.0,0.0,0.0,6183235.0,6273180.0,0.0,-1.7717092,-0.8643068,9.631873,-0.009773844,0.004886922,-0.002443461
2022-03-17T15:05:03-03:00,57.0,0.066859245,914.761,144.0,79.0,0.0,0.0,6183294.0,6273454.0,0.0,-1.7717092,-0.8643068,9.631873,-0.009773844,0.004886922,-0.002443461
2022-03-17T15:05:03-03:00,57.0,0.067014694,914.761,144.0,79.0,0.0,0.0,6183382.0,6273347.0,0.0,-1.733402,-0.8571242,9.598354,-0.007330383,0.002443461,-0.004886922
2022-03-17T15:05:03-03:00,57.0,0.06716919,914.761,144.0,79.0,0.0,0.0,6183751.0,6273943.0,0.0,-1.733402,-0.8571242,9.598354,-0.007330383,0.002443461,-0.004886922
2022-03-17T15:05:03-03:00,57.0,0.06732273,914.7903,144.0,79.0,0.0,0.0,6184461.0,6274420.0,0.0,-1.733402,-0.8571242,9.598354,-0.007330383,0.002443461,-0.004886922
2022-03-17T15:05:03-03:00,57.0,0.067477226,914.7903,144.0,79.0,0.0,0.0,6184310.0,6274883.0,0.0,-1.7597382,-0.94092125,9.665392,0.0,0.0,0.0012217305
2022-03-17T15:05:03-03:00,57.0,0.06761837,914.7903,144.0,79.0,0.0,0.0,6184828.0,6274996.0,0.0,-1.7597382,-0.94092125,9.665392,0.0,0.0,0.0012217305
2022-03-17T15:05:03-03:00,57.0,0.06775856,914.7903,144.0,79.0,0.0,0.0,6185499.0,6275749.0,0.0,-1.7597382,-0.94092125,9.665392,0.0,0.0,0.0012217305
2022-03-17T15:05:03-03:00,57.0,0.06789875,914.8037,144.0,79.0,0.0,0.0,6186190.0,6275714.0,0.0,-1.6472107,-0.8523358,9.674969,-0.007330383,0.0,-0.002443461
2022-03-17T15:05:03-03:00,57.0,0.06804657,914.8037,144.0,79.0,0.0,0.0,6186421.0,6276505.0,0.0,-1.6472107,-0.8523358,9.674969,-0.007330383,0.0,-0.002443461
2022-03-17T15:05:03-03:00,57.0,0.06819439,914.8037,144.0,79.0,0.0,0.0,6186256.0,6276026.0,0.0,-1.6472107,-0.8523358,9.674969,-0.007330383,0.0,-0.002443461
2022-03-17T15:05:03-03:00,57.0,0.06834221,914.8037,144.0,79.0,0.0,0.0,6185715.0,6275852.0,0.0,-1.6998832,-0.91458505,9.61272,-0.0036651916,-0.007330383,-0.0012217305
2022-03-17T15:05:04-03:00,57.0,0.06850052,914.7749,144.0,79.0,0.0,0.0,6184664.0,6274173.0,0.0,-1.6998832,-0.91458505,9.61272,-0.0036651916,-0.007330383,-0.0012217305
2022-03-17T15:05:04-03:00,57.0,0.06865883,914.7749,144.0,78.0,0.0,0.0,6183994.0,6273381.0,0.0,-1.6998832,-0.91458505,9.61272,-0.0036651916,-0.007330383,-0.0012217305
2022-03-17T15:05:04-03:00,57.0,0.06881714,914.7749,144.0,78.0,0.0,0.0,6184190.0,6273501.0,0.0,-1.6950948,-0.94092125,9.629479,-0.004886922,0.0,0.002443461
2022-03-17T15:05:04-03:00,57.0,0.06896496,914.7749,144.0,78.0,0.0,0.0,6184784.0,6273604.0,0.0,-1.6950948,-0.94092125,9.629479,-0.004886922,0.0,0.002443461
2022-03-17T15:05:04-03:00,57.0,0.06911278,914.78467,144.0,78.0,0.0,0.0,6184988.0,6274167.0,0.0,-1.6950948,-0.94092125,9.629479,-0.004886922,0.0,0.002443461
2022-03-17T15:05:04-03:00,57.0,0.06926155,914.78467,144.0,78.0,0.0,0.0,6184965.0,6274447.0,0.0,-1.7812861,-0.93134445,9.660604,-0.010995574,0.007330383,-0.004886922
2022-03-17T15:05:04-03:00,57.0,0.06941891,914.78467,144.0,78.0,0.0,0.0,6184910.0,6274343.0,0.0,-1.7812861,-0.93134445,9.660604,-0.010995574,0.007330383,-0.004886922
2022-03-17T15:05:04-03:00,57.0,0.06957626,914.78467,144.0,78.0,0.0,0.0,6185241.0,6274274.0,0.0,-1.7812861,-0.93134445,9.660604,-0.010995574,0.007330383,-0.004886922
2022-03-17T15:05:04-03:00,57.0,0.06973362,914.78467,144.0,78.0,0.0,0.0,6185350.0,6275267.0,0.0,-1.7381904,-0.91697925,9.701305,-0.002443461,0.004886922,0.002443461
2022-03-17T15:05:04-03:00,57.0,0.06989002,914.78467,144.0,78.0,0.0,0.0,6186069.0,6275034.0,0.0,-1.7381904,-0.91697925,9.701305,-0.002443461,0.004886922,0.002443461
2022-03-17T15:05:04-03:00,57.0,0.070046425,914.78467,144.0,78.0,0.0,0.0,6186350.0,6275626.0,0.0,-1.7381904,-0.91697925,9.701305,-0.002443461,0.004886922,0.002443461
2022-03-17T15:05:04-03:00,57.0,0.07020378,914.78467,144.0,78.0,0.0,0.0,6186210.0,6275865.0,0.0,-1.7717092,-0.93373865,9.629479,-0.002443461,0.0061086523,0.0012217305
2022-03-17T15:05:04-03:00,57.0,0.07036209,914.782,148.0,78.0,0.0,0.0,6186746.0,6276178.0,0.0,-1.7717092,-0.93373865,9.629479,-0.002443461,0.0061086523,0.0012217305
2022-03-17T15:05:04-03:00,57.0,0.07051849,914.782,148.0,78.0,0.0,0.0,6187123.0,6276108.0,0.0,-1.7717092,-0.93373865,9.629479,-0.002443461,0.0061086523,0.0012217305
2022-03-17T15:05:04-03:00,57.0,0.070674896,914.782,148.0,78.0,0.0,0.0,6186404.0,6275391.0,0.0,-1.7118542,-0.8619126,9.598354,0.007330383,-0.004886922,0.0061086523
2022-03-17T15:05:04-03:00,57.0,0.070830345,914.79224,148.0,78.0,0.0,0.0,6185254.0,6274183.0,0.0,-1.7118542,-0.8619126,9.598354,0.007330383,-0.004886922,0.0061086523
2022-03-17T15:05:04-03:00,57.0,0.0709877,914.79224,148.0,78.0,0.0,0.0,6184467.0,6273464.0,0.0,-1.7118542,-0.8619126,9.598354,0.007330383,-0.004886922,0.0061086523
2022-03-17T15:05:04-03:00,57.0,0.07114315,914.79224,148.0,78.0,0.0,0.0,6184812.0,6273085.0,0.0,-1.7597382,-0.9552865,9.636662,-0.0061086523,0.0012217305,0.0012217305
2022-03-17T15:05:04-03:00,57.0,0.07130146,914.79224,148.0,78.0,0.0,0.0,6185148.0,6274288.0,0.0,-1.7597382,-0.9552865,9.636662,-0.0061086523,0.0012217305,0.0012217305
2022-03-17T15:05:04-03:00,57.0,0.07145977,914.7468,148.0,78.0,0.0,0.0,6185807.0,6274322.0,0.0,-1.7597382,-0.9552865,9.636662,-0.0061086523,0.0012217305,0.0012217305
2022-03-17T15:05:05-03:00,57.0,0.07161713,914.7468,148.0,78.0,0.0,0.0,6185909.0,6274423.0,0.0,-1.6950948,-0.8834604,9.603143,-0.007330383,0.009773844,-0.0012217305
2022-03-17T15:05:05-03:00,57.0,0.07177353,914.7468,148.0,77.0,0.0,0.0,6185617.0,6274418.0,0.0,-1.6950948,-0.8834604,9.603143,-0.007330383,0.009773844,-0.0012217305
2022-03-17T15:05:05-03:00,57.0,0.07192993,914.7468,148.0,77.0,0.0,0.0,6185282.0,6274685.0,0.0,-1.6950948,-0.8834604,9.603143,-0.007330383,0.009773844,-0.0012217305
2022-03-17T15:05:05-03:00,57.0,0.072086334,914.7717,152.0,77.0,0.0,0.0,6185648.0,6274294.0,0.0,-1.6950948,-0.8834604,9.603143,-0.007330383,0.009773844,-0.0012217305
2022-03-17T15:05:05-03:00,57.0,0.07224369,914.7717,152.0,77.0,0.0,0.0,6186145.0,6275246.0,0.0,-1.70946,-0.92655605,9.610326,-0.004886922,0.002443461,0.0
2022-03-17T15:05:05-03:00,57.0,0.0723896,914.7717,152.0,77.0,0.0,0.0,6186691.0,6275054.0,0.0,-1.70946,-0.92655605,9.610326,-0.004886922,0.002443461,0.0
2022-03-17T15:05:05-03:00,57.0,0.07253456,914.7717,152.0,77.0,0.0,0.0,6187036.0,6275751.0,0.0,-1.70946,-0.92655605,9.610326,-0.004886922,0.002443461,0.0
2022-03-17T15:05:05-03:00,57.0,0.07268047,914.7949,152.0,77.0,0.0,0.0,6187440.0,6275646.0,0.0,-1.7166426,-0.89782566,9.543288,-0.004886922,0.004886922,0.002443461
2022-03-17T15:05:05-03:00,57.0,0.07283592,914.7949,152.0,77.0,0.0,0.0,6187649.0,6276005.0,0.0,-1.7166426,-0.89782566,9.543288,-0.004886922,0.004886922,0.002443461
2022-03-17T15:05:05-03:00,57.0,0.07299137,914.7949,152.0,77.0,0.0,0.0,6186533.0,6274922.0,0.0,-1.7166426,-0.89782566,9.543288,-0.004886922,0.004886922,0.002443461
2022-03-17T15:05:05-03:00,57.0,0.07314682,914.7949,152.0,77.0,0.0,0.0,6185135.0,6273541.0,0.0,-1.721431,-0.8475474,9.665392,0.0,-0.002443461,0.0
2022-03-17T15:05:05-03:00,57.0,0.0732851,914.7634,156.0,77.0,0.0,0.0,6184719.0,6273158.0,0.0,-1.721431,-0.8475474,9.665392,0.0,-0.002443461,0.0
2022-03-17T15:05:05-03:00,57.0,0.07342243,914.7634,156.0,77.0,0.0,0.0,6184929.0,6273214.0,0.0,-1.721431,-0.8475474,9.665392,0.0,-0.002443461,0.0
2022-03-17T15:05:05-03:00,57.0,0.073560715,914.7634,156.0,77.0,0.0,0.0,6185444.0,6273888.0,0.0,-1.7525556,-0.8379706,9.660604,0.007330383,0.007330383,0.0012217305
2022-03-17T15:05:05-03:00,57.0,0.07371616,914.7634,156.0,77.0,0.0,0.0,6185042.0,6274102.0,0.0,-1.7525556,-0.8379706,9.660604,0.007330383,0.007330383,0.0012217305
2022-03-17T15:05:05-03:00,57.0,0.07387066,914.76465,160.0,77.0,0.0,0.0,6185722.0,6273919.0,0.0,-1.7525556,-0.8379706,9.660604,0.007330383,0.007330383,0.0012217305
2022-03-17T15:05:05-03:00,57.0,0.07402611,914.76465,160.0,77.0,0.0,0.0,6185687.0,6273679.0,0.0,-1.7286136,-0.93852705,9.636662,-0.004886922,0.0012217305,-0.002443461
2022-03-17T15:05:05-03:00,57.0,0.07418442,914.76465,160.0,77.0,0.0,0.0,6185898.0,6274360.0,0.0,-1.7286136,-0.93852705,9.636662,-0.004886922,0.0012217305,-0.002443461
2022-03-17T15:05:06-03:00,57.0,0.07434273,914.76465,160.0,77.0,0.0,0.0,6186241.0,6274490.0,0.0,-1.7286136,-0.93852705,9.636662,-0.004886922,0.0012217305,-0.002443461
2022-03-17T15:05:06-03:00,57.0,0.07450104,914.7637,160.0,77.0,0.0,0.0,6186361.0,6275080.0,0.0,-1.6783354,-0.89782566,9.67018,0.002443461,0.0,0.002443461
2022-03-17T15:05:06-03:00,57.0,0.07464695,914.7637,160.0,75.0,0.0,0.0,6186288.0,6274782.0,0.0,-1.6783354,-0.89782566,9.67018,0.002443461,0.0,0.002443461
2022-03-17T15:05:06-03:00,57.0,0.07479286,914.7637,160.0,75.0,0.0,0.0,6187133.0,6275496.0,0.0,-1.6783354,-0.89782566,9.67018,0.002443461,0.0,0.002443461
2022-03-17T15:05:06-03:00,57.0,0.074938774,914.8086,168.0,75.0,0.0,0.0,6187210.0,6275113.0,0.0,-1.6807296,-0.9600749,9.651027,-0.004886922,0.0061086523,-0.0012217305
2022-03-17T15:05:06-03:00,57.0,0.075097084,914.8086,168.0,75.0,0.0,0.0,6186906.0,6275430.0,0.0,-1.6807296,-0.9600749,9.651027,-0.004886922,0.0061086523,-0.0012217305
2022-03-17T15:05:06-03:00,57.0,0.075255394,914.8086,168.0,75.0,0.0,0.0,6185498.0,6273932.0,0.0,-1.6807296,-0.9600749,9.651027,-0.004886922,0.0061086523,-0.0012217305
2022-03-17T15:05:06-03:00,57.0,0.075413704,914.8086,168.0,75.0,0.0,0.0,6184615.0,6273003.0,0.0,-1.7932571,-0.878672,9.603143,-0.0012217305,-0.0012217305,0.0036651916
2022-03-17T15:05:06-03:00,57.0,0.075572014,914.78613,172.0,75.0,0.0,0.0,6184112.0,6272699.0,0.0,-1.7932571,-0.878672,9.603143,-0.0012217305,-0.0012217305,0.0036651916
2022-03-17T15:05:06-03:00,57.0,0.07573128,914.78613,172.0,75.0,0.0,0.0,6185081.0,6273069.0,0.0,-1.7932571,-0.878672,9.603143,-0.0012217305,-0.0012217305,0.0036651916
2022-03-17T15:05:06-03:00,57.0,0.07588959,914.78613,172.0,75.0,0.0,0.0,6185158.0,6273392.0,0.0,-1.7118542,-0.94570965,9.679757,-0.009773844,0.004886922,0.0
2022-03-17T15:05:06-03:00,57.0,0.07603836,914.78613,172.0,75.0,0.0,0.0,6185242.0,6273324.0,0.0,-1.7118542,-0.94570965,9.679757,-0.009773844,0.004886922,0.0
2022-03-17T15:05:06-03:00,57.0,0.076187134,914.75854,176.0,75.0,0.0,0.0,6185386.0,6273230.0,0.0,-1.7118542,-0.94570965,9.679757,-0.009773844,0.004886922,0.0
2022-03-17T15:05:06-03:00,57.0,0.07633686,914.75854,176.0,75.0,0.0,0.0,6185372.0,6273561.0,0.0,-1.7884687,-0.81163436,9.720459,-0.0036651916,0.0012217305,-0.0012217305
2022-03-17T15:05:06-03:00,57.0,0.07649708,914.75854,176.0,75.0,0.0,0.0,6185588.0,6273178.0,0.0,-1.7884687,-0.81163436,9.720459,-0.0036651916,0.0012217305,-0.0012217305
2022-03-17T15:05:06-03:00,57.0,0.076657295,914.75854,176.0,75.0,0.0,0.0,6185734.0,6274095.0,0.0,-1.7884687,-0.81163436,9.720459,-0.0036651916,0.0012217305,-0.0012217305
2022-03-17T15:05:06-03:00,57.0,0.076818466,914.8037,184.0,75.0,0.0,0.0,6186206.0,6273832.0,0.0,-1.673547,-0.82599956,9.651027,-0.0012217305,0.007330383,0.002443461
2022-03-17T15:05:06-03:00,57.0,0.07697487,914.8037,184.0,75.0,0.0,0.0,6185919.0,6274703.0,0.0,-1.673547,-0.82599956,9.651027,-0.0012217305,0.007330383,0.002443461
2022-03-17T15:05:06-03:00,57.0,0.07713032,914.8037,184.0,75.0,0.0,0.0,6186287.0,6274855.0,0.0,-1.673547,-0.82599956,9.651027,-0.0012217305,0.007330383,0.002443461
2022-03-17T15:05:07-03:00,57.0,0.07728577,914.8037,184.0,75.0,0.0,0.0,6186493.0,6274926.0,0.0,-1.673547,-0.82599956,9.651027,-0.0012217305,0.007330383,0.002443461
2022-03-17T15:05:07-03:00,57.0,0.077441216,914.78687,188.0,75.0,0.0,0.0,6186035.0,6273600.0,0.0,-1.6879122,-0.85473,9.600749,-0.008552114,0.0,-0.0012217305
2022-03-17T15:05:07-03:00,57.0,0.07758999,914.78687,188.0,75.0,0.0,0.0,6183957.0,6272613.0,0.0,-1.6879122,-0.85473,9.600749,-0.008552114,0.0,-0.0012217305
2022-03-17T15:05:07-03:00,57.0,0.07773781,914.78687,188.0,75.0,0.0,0.0,6184065.0,6271637.0,0.0,-1.6879122,-0.85473,9.600749,-0.008552114,0.0,-0.0012217305
2022-03-17T15:05:07-03:00,57.0,0.07788563,914.78687,188.0,75.0,0.0,0.0,6184300.0,6272355.0,0.0,-1.6831238,-0.78769237,9.634268,0.002443461,0.0,0.002443461
2022-03-17T15:05:07-03:00,57.0,0.07803345,914.7893,200.0,75.0,0.0,0.0,6185177.0,6272945.0,0.0,-1.6831238,-0.78769237,9.634268,0.002443461,0.0,0.002443461
2022-03-17T15:05:07-03:00,57.0,0.07818031,914.7893,200.0,75.0,0.0,0.0,6185270.0,6273224.0,0.0,-1.6831238,-0.78769237,9.634268,0.002443461,0.0,0.002443461
2022-03-17T15:05:07-03:00,57.0,0.07832718,914.7893,200.0,75.0,0.0,0.0,6185827.0,6273047.0,0.0,-1.6543933,-0.81881696,9.665392,-0.009773844,0.002443461,-0.0061086523
2022-03-17T15:05:07-03:00,57.0,0.078484535,914.7893,200.0,75.0,0.0,0.0,6185390.0,6273406.0,0.0,-1.6543933,-0.81881696,9.665392,-0.009773844,0.002443461,-0.0061086523
2022-03-17T15:05:07-03:00,57.0,0.078642845,914.79395,208.0,75.0,0.0,0.0,6186162.0,6273530.0,0.0,-1.6543933,-0.81881696,9.665392,-0.009773844,0.002443461,-0.0061086523
2022-03-17T15:05:07-03:00,57.0,0.07880211,914.79395,208.0,75.0,0.0,0.0,6186706.0,6273674.0,0.0,-1.7190368,-0.82121116,9.648633,-0.004886922,0.002443461,0.0
2022-03-17T15:05:07-03:00,57.0,0.07895088,914.79395,208.0,75.0,0.0,0.0,6187147.0,6274533.0,0.0,-1.7190368,-0.82121116,9.648633,-0.004886922,0.002443461,0.0
2022-03-17T15:05:07-03:00,57.0,0.079099655,914.7771,220.0,75.0,0.0,0.0,6186959.0,6274728.0,0.0,-1.7190368,-0.82121116,9.648633,-0.004886922,0.002443461,0.0
2022-03-17T15:05:07-03:00,57.0,0.07924843,914.7771,220.0,75.0,0.0,0.0,6187800.0,6275150.0,0.0,-1.685518,-0.8475474,9.660604,-0.002443461,0.0,0.002443461
2022-03-17T15:05:07-03:00,57.0,0.07939434,914.7771,220.0,75.0,0.0,0.0,6187383.0,6275312.0,0.0,-1.685518,-0.8475474,9.660604,-0.002443461,0.0,0.002443461
2022-03-17T15:05:07-03:00,57.0,0.07954025,914.7771,220.0,75.0,0.0,0.0,6187545.0,6274558.0,0.0,-1.685518,-0.8475474,9.660604,-0.002443461,0.0,0.002443461
2022-03-17T15:05:07-03:00,57.0,0.079686165,914.7998,228.0,75.0,0.0,0.0,6185931.0,6273388.0,0.0,-1.6519991,-0.8690952,9.634268,-0.002443461,-0.0036651916,-0.0036651916
2022-03-17T15:05:07-03:00,57.0,0.07984543,914.7998,228.0,75.0,0.0,0.0,6185921.0,6272456.0,0.0,-1.6519991,-0.8690952,9.634268,-0.002443461,-0.0036651916,-0.0036651916
2022-03-17T15:05:07-03:00,57.0,0.08000374,914.7998,228.0,75.0,0.0,0.0,6186107.0,6272132.0,0.0,-1.6519991,-0.8690952,9.634268,-0.002443461,-0.0036651916,-0.0036651916
2022-03-17T15:05:07-03:00,57.0,0.08016205,914.7998,228.0,75.0,0.0,0.0,6186767.0,6273479.0,0.0,-1.6998832,-0.79726917,9.718064,0.002443461,0.004886922,0.0
2022-03-17T15:05:08-03:00,57.0,0.080308914,914.7722,232.0,75.0,0.0,0.0,6187076.0,6273098.0,0.0,-1.6998832,-0.79726917,9.718064,0.002443461,0.004886922,0.0
2022-03-17T15:05:08-03:00,57.0,0.08045673,914.7722,232.0,75.0,0.0,0.0,6187411.0,6273790.0,0.0,-1.6998832,-0.79726917,9.718064,0.002443461,0.004886922,0.0
2022-03-17T15:05:08-03:00,57.0,0.0806036,914.7722,232.0,74.0,0.0,0.0,6187180.0,6273372.0,0.0,-1.70946,-0.94331545,9.631873,-0.0061086523,0.004886922,-0.004886922
2022-03-17T15:05:08-03:00,57.0,0.080758095,914.7722,232.0,74.0,0.0,0.0,6187344.0,6273971.0,0.0,-1.70946,-0.94331545,9.631873,-0.0061086523,0.004886922,-0.004886922
2022-03-17T15:05:08-03:00,57.0,0.0809145,914.77637,240.0,74.0,0.0,0.0,6187452.0,6274280.0,0.0,-1.70946,-0.94331545,9.631873,-0.0061086523,0.004886922,-0.004886922
2022-03-17T15:05:08-03:00,57.0,0.08106995,914.77637,240.0,74.0,0.0,0.0,6188015.0,6274536.0,0.0,-1.7262194,-0.9504981,9.701305,0.0036651916,0.002443461,0.002443461
2022-03-17T15:05:08-03:00,57.0,0.081225395,914.77637,240.0,74.0,0.0,0.0,6188421.0,6274634.0,0.0,-1.7262194,-0.9504981,9.701305,0.0036651916,0.002443461,0.002443461
2022-03-17T15:05:08-03:00,57.0,0.0813818,914.77637,240.0,74.0,0.0,0.0,6188789.0,6274865.0,0.0,-1.7262194,-0.9504981,9.701305,0.0036651916,0.002443461,0.002443461
2022-03-17T15:05:08-03:00,57.0,0.08153629,914.7788,244.0,74.0,0.0,0.0,6188102.0,6274530.0,0.0,-1.7597382,-0.89303726,9.643845,-0.004886922,0.0012217305,0.0
2022-03-17T15:05:08-03:00,57.0,0.081685066,914.7788,244.0,74.0,0.0,0.0,6187620.0,6274710.0,0.0,-1.7597382,-0.89303726,9.643845,-0.004886922,0.0012217305,0.0
2022-03-17T15:05:08-03:00,57.0,0.08183479,914.7788,244.0,74.0,0.0,0.0,6186955.0,6272806.0,0.0,-1.7597382,-0.89303726,9.643845,-0.004886922,0.0012217305,0.0
2022-03-17T15:05:08-03:00,57.0,0.08198357,914.7788,244.0,74.0,0.0,0.0,6186424.0,6272532.0,0.0,-1.733402,-0.91937345,9.6845455,0.009773844,-0.007330383,0.0036651916
2022-03-17T15:05:08-03:00,57.0,0.08213997,914.7759,248.0,74.0,0.0,0.0,6186415.0,6272621.0,0.0,-1.733402,-0.91937345,9.6845455,0.009773844,-0.007330383,0.0036651916
2022-03-17T15:05:08-03:00,57.0,0.08229637,914.7759,248.0,74.0,0.0,0.0,6187273.0,6273601.0,0.0,-1.733402,-0.91937345,9.6845455,0.009773844,-0.007330383,0.0036651916
2022-03-17T15:05:08-03:00,57.0,0.082452774,914.7759,248.0,74.0,0.0,0.0,6187647.0,6273486.0,0.0,-1.769315,-0.89064306,9.651027,0.004886922,-0.0012217305,0.0
2022-03-17T15:05:08-03:00,57.0,0.08260155,914.7759,248.0,74.0,0.0,0.0,6187515.0,6273579.0,0.0,-1.769315,-0.89064306,9.651027,0.004886922,-0.0012217305,0.0
2022-03-17T15:05:08-03:00,57.0,0.08274937,914.7986,248.0,74.0,0.0,0.0,6188224.0,6273782.0,0.0,-1.769315,-0.89064306,9.651027,0.004886922,-0.0012217305,0.0
2022-03-17T15:05:08-03:00,57.0,0.08289719,914.7986,248.0,74.0,0.0,0.0,6187847.0,6273921.0,0.0,-1.769315,-0.89064306,9.651027,0.004886922,-0.0012217305,0.0
2022-03-17T15:05:08-03:00,57.0,0.083045006,914.7986,248.0,74.0,0.0,0.0,6187821.0,6273772.0,0.0,-1.7118542,-0.89782566,9.672575,0.002443461,0.004886922,0.002443461
2022-03-17T15:05:09-03:00,57.0,0.083200455,914.7805,252.0,74.0,0.0,0.0,6188694.0,6274347.0,0.0,-1.7118542,-0.89782566,9.672575,0.002443461,0.004886922,0.002443461
2022-03-17T15:05:09-03:00,57.0,0.0833559,914.7805,252.0,74.0,0.0,0.0,6188430.0,6274129.0,0.0,-1.7118542,-0.89782566,9.672575,0.002443461,0.004886922,0.002443461
2022-03-17T15:05:09-03:00,57.0,0.083509445,914.7805,252.0,75.0,0.0,0.0,6189015.0,6275002.0,0.0,-1.673547,-0.878672,9.627085,0.0012217305,-0.002443461,0.0036651916
2022-03-17T15:05:09-03:00,57.0,0.083664894,914.7805,252.0,75.0,0.0,0.0,6189147.0,6274973.0,0.0,-1.673547,-0.878672,9.627085,0.0012217305,-0.002443461,0.0036651916
2022-03-17T15:05:09-03:00,57.0,0.08382034,914.79517,252.0,75.0,0.0,0.0,6187768.0,6273957.0,0.0,-1.673547,-0.878672,9.627085,0.0012217305,-0.002443461,0.0036651916
2022-03-17T15:05:09-03:00,57.0,0.08397579,914.79517,252.0,75.0,0.0,0.0,6186914.0,6272787.0,0.0,-1.6711528,-0.8283938,9.629479,0.0036651916,-0.007330383,0.0012217305
2022-03-17T15:05:09-03:00,57.0,0.08413315,914.79517,252.0,75.0,0.0,0.0,6186818.0,6272343.0,0.0,-1.6711528,-0.8283938,9.629479,0.0036651916,-0.007330383,0.0012217305
2022-03-17T15:05:09-03:00,57.0,0.084290504,914.79517,252.0,75.0,0.0,0.0,6187411.0,6272454.0,0.0,-1.6711528,-0.8283938,9.629479,0.0036651916,-0.007330383,0.0012217305
2022-03-17T15:05:09-03:00,57.0,0.084448814,914.7925,252.0,75.0,0.0,0.0,6187694.0,6272587.0,0.0,-1.7525556,-0.830788,9.6845455,0.0012217305,0.0061086523,0.0012217305
2022-03-17T15:05:09-03:00,57.0,0.08460617,914.7925,252.0,75.0,0.0,0.0,6188207.0,6273304.0,0.0,-1.7525556,-0.830788,9.6845455,0.0012217305,0.0061086523,0.0012217305
2022-03-17T15:05:09-03:00,57.0,0.08476257,914.7925,252.0,75.0,0.0,0.0,6187903.0,6273085.0,0.0,-1.7525556,-0.830788,9.6845455,0.0012217305,0.0061086523,0.0012217305
2022-03-17T15:05:09-03:00,57.0,0.084918976,914.7925,252.0,75.0,0.0,0.0,6187335.0,6273144.0,0.0,-1.7956513,-0.93852705,9.581595,-0.0012217305,0.002443461,-0.0012217305
2022-03-17T15:05:09-03:00,57.0,0.08507824,914.76514,252.0,75.0,0.0,0.0,6187550.0,6273228.0,0.0,-1.7956513,-0.93852705,9.581595,-0.0012217305,0.002443461,-0.0012217305
2022-03-17T15:05:09-03:00,57.0,0.0852375,914.76514,252.0,75.0,0.0,0.0,6188031.0,6273445.0,0.0,-1.7956513,-0.93852705,9.581595,-0.0012217305,0.002443461,-0.0012217305
2022-03-17T15:05:09-03:00,57.0,0.08539581,914.76514,252.0,75.0,0.0,0.0,6187880.0,6273788.0,0.0,-1.661576,-0.8834604,9.696517,0.0036651916,0.0012217305,0.0012217305
2022-03-17T15:05:09-03:00,57.0,0.085552216,914.76514,252.0,75.0,0.0,0.0,6188540.0,6273901.0,0.0,-1.661576,-0.8834604,9.696517,0.0036651916,0.0012217305,0.0012217305
2022-03-17T15:05:09-03:00,57.0,0.08570957,914.76245,252.0,75.0,0.0,0.0,6188942.0,6274414.0,0.0,-1.661576,-0.8834604,9.696517,0.0036651916,0.0012217305,0.0012217305
2022-03-17T15:05:09-03:00,57.0,0.085865974,914.76245,252.0,75.0,0.0,0.0,6188916.0,6274191.0,0.0,-1.697489,-0.93134445,9.696517,-0.0061086523,0.0036651916,0.0
2022-03-17T15:05:09-03:00,57.0,0.086016655,914.76245,252.0,75.0,0.0,0.0,6187341.0,6272915.0,0.0,-1.697489,-0.93134445,9.696517,-0.0061086523,0.0036651916,0.0
2022-03-17T15:05:09-03:00,57.0,0.086167336,914.76245,252.0,75.0,0.0,0.0,6186508.0,6271543.0,0.0,-1.697489,-0.93134445,9.696517,-0.0061086523,0.0036651916,0.0
2022-03-17T15:05:10-03:00,57.0,0.086318016,914.77783,248.0,75.0,0.0,0.0,6186357.0,6271259.0,0.0,-1.673547,-0.8619126,9.694122,0.004886922,0.0,0.0036651916
2022-03-17T15:05:10-03:00,57.0,0.086465836,914.77783,248.0,77.0,0.0,0.0,6186140.0,6271351.0,0.0,-1.673547,-0.8619126,9.694122,0.004886922,0.0,0.0036651916
2022-03-17T15:05:10-03:00,57.0,0.086613655,914.77783,248.0,77.0,0.0,0.0,6186522.0,6272196.0,0.0,-1.673547,-0.8619126,9.694122,0.004886922,0.0,0.0036651916
2022-03-17T15:05:10-03:00,57.0,0.086761475,914.77783,248.0,77.0,0.0,0.0,6187019.0,6271777.0,0.0,-1.6783354,-0.8499416,9.64145,0.002443461,0.002443461,-0.0012217305
2022-03-17T15:05:10-03:00,57.0,0.08691788,914.7822,240.0,77.0,0.0,0.0,6186160.0,6271984.0,0.0,-1.6783354,-0.8499416,9.64145,0.002443461,0.002443461,-0.0012217305
2022-03-17T15:05:10-03:00,57.0,0.08707237,914.7822,240.0,77.0,0.0,0.0,6186016.0,6271864.0,0.0,-1.6783354,-0.8499416,9.64145,0.002443461,0.002443461,-0.0012217305
2022-03-17T15:05:10-03:00,57.0,0.08722687,914.7822,240.0,77.0,0.0,0.0,6186367.0,6271808.0,0.0,-1.7549498,-0.8882488,9.555259,0.0061086523,0.0036651916,0.0036651916
2022-03-17T15:05:10-03:00,57.0,0.08738327,914.7822,240.0,77.0,0.0,0.0,6186693.0,6272214.0,0.0,-1.7549498,-0.8882488,9.555259,0.0061086523,0.0036651916,0.0036651916
2022-03-17T15:05:10-03:00,57.0,0.08753967,914.80347,236.0,77.0,0.0,0.0,6187093.0,6272484.0,0.0,-1.7549498,-0.8882488,9.555259,0.0061086523,0.0036651916,0.0036651916
2022-03-17T15:05:10-03:00,57.0,0.08769703,914.80347,236.0,77.0,0.0,0.0,6187746.0,6272682.0,0.0,-1.7238252,-0.82360536,9.646238,0.0012217305,-0.004886922,0.0012217305
2022-03-17T15:05:10-03:00,57.0,0.08785534,914.80347,236.0,77.0,0.0,0.0,6187358.0,6273103.0,0.0,-1.7238252,-0.82360536,9.646238,0.0012217305,-0.004886922,0.0012217305
2022-03-17T15:05:10-03:00,57.0,0.08801365,914.77734,228.0,77.0,0.0,0.0,6187275.0,6272199.0,0.0,-1.7238252,-0.82360536,9.646238,0.0012217305,-0.004886922,0.0012217305
2022-03-17T15:05:10-03:00,57.0,0.08817196,914.77734,228.0,77.0,0.0,0.0,6186562.0,6271395.0,0.0,-1.7238252,-0.82360536,9.646238,0.0012217305,-0.004886922,0.0012217305
2022-03-17T15:05:10-03:00,57.0,0.08833027,914.77734,228.0,77.0,0.0,0.0,6185465.0,6270470.0,0.0,-1.7142484,-0.82121116,9.600749,-0.002443461,0.0012217305,0.0012217305
2022-03-17T15:05:10-03:00,57.0,0.08848858,914.77734,228.0,77.0,0.0,0.0,6185634.0,6270229.0,0.0,-1.7142484,-0.82121116,9.600749,-0.002443461,0.0012217305,0.0012217305
2022-03-17T15:05:10-03:00,57.0,0.08864689,914.7949,220.0,77.0,0.0,0.0,6185848.0,6270959.0,0.0,-1.7142484,-0.82121116,9.600749,-0.002443461,0.0012217305,0.0012217305
2022-03-17T15:05:10-03:00,57.0,0.088804245,914.7949,220.0,77.0,0.0,0.0,6186083.0,6271038.0,0.0,-1.6950948,-0.878672,9.603143,0.0012217305,0.0036651916,0.004886922
2022-03-17T15:05:10-03:00,57.0,0.088959694,914.7949,220.0,77.0,0.0,0.0,6186128.0,6271098.0,0.0,-1.6950948,-0.878672,9.603143,0.0012217305,0.0036651916,0.004886922
2022-03-17T15:05:10-03:00,57.0,0.08911514,914.7949,220.0,77.0,0.0,0.0,6186053.0,6271039.0,0.0,-1.6950948,-0.878672,9.603143,0.0012217305,0.0036651916,0.004886922
2022-03-17T15:05:11-03:00,57.0,0.08926964,914.792,212.0,77.0,0.0,0.0,6186088.0,6270988.0,0.0,-1.7238252,-0.8858546,9.639056,0.0036651916,0.0,0.0
2022-03-17T15:05:11-03:00,57.0,0.08940792,914.792,212.0,77.0,0.0,0.0,6186094.0,6271389.0,0.0,-1.7238252,-0.8858546,9.639056,0.0036651916,0.0,0.0
2022-03-17T15:05:11-03:00,57.0,0.0895462,914.792,212.0,77.0,0.0,0.0,6186483.0,6271349.0,0.0,-1.7238252,-0.8858546,9.639056,0.0036651916,0.0,0.0
2022-03-17T15:05:11-03:00,57.0,0.08968353,914.792,212.0,77.0,0.0,0.0,6187281.0,6272136.0,0.0,-1.697489,-0.82121116,9.607931,-0.004886922,0.0036651916,-0.0012217305
2022-03-17T15:05:11-03:00,57.0,0.089839935,914.7803,204.0,77.0,0.0,0.0,6187663.0,6272642.0,0.0,-1.697489,-0.82121116,9.607931,-0.004886922,0.0036651916,-0.0012217305
2022-03-17T15:05:11-03:00,57.0,0.089998245,914.7803,204.0,77.0,0.0,0.0,6188058.0,6272971.0,0.0,-1.697489,-0.82121116,9.607931,-0.004886922,0.0036651916,-0.0012217305
2022-03-17T15:05:11-03:00,57.0,0.090156555,914.7803,204.0,77.0,0.0,0.0,6188382.0,6273043.0,0.0,-1.7501614,-0.8355764,9.677363,-0.0061086523,0.002443461,-0.002443461
2022-03-17T15:05:11-03:00,57.0,0.09031391,914.7803,204.0,77.0,0.0,0.0,6187274.0,6272146.0,0.0,-1.7501614,-0.8355764,9.677363,-0.0061086523,0.002443461,-0.002443461
2022-03-17T15:05:11-03:00,57.0,0.090470314,914.7844,196.0,77.0,0.0,0.0,6185668.0,6270486.0,0.0,-1.7501614,-0.8355764,9.677363,-0.0061086523,0.002443461,-0.002443461
2022-03-17T15:05:11-03:00,57.0,0.09062767,914.7844,196.0,77.0,0.0,0.0,6186103.0,6270333.0,0.0,-1.8650831,-0.90021986,9.701305,-0.002443461,0.0012217305,-0.002443461
2022-03-17T15:05:11-03:00,57.0,0.09078503,914.7844,196.0,77.0,0.0,0.0,6186671.0,6270917.0,0.0,-1.8650831,-0.90021986,9.701305,-0.002443461,0.0012217305,-0.002443461
2022-03-17T15:05:11-03:00,57.0,0.09094238,914.7844,196.0,77.0,0.0,0.0,6186669.0,6270876.0,0.0,-1.8650831,-0.90021986,9.701305,-0.002443461,0.0012217305,-0.002443461
2022-03-17T15:05:11-03:00,57.0,0.09109974,914.7676,192.0,77.0,0.0,0.0,6187124.0,6271178.0,0.0,-1.7621324,-0.89543146,9.634268,-0.004886922,0.002443461,-0.002443461
2022-03-17T15:05:11-03:00,57.0,0.09125614,914.7676,192.0,77.0,0.0,0.0,6187329.0,6271144.0,0.0,-1.7621324,-0.89543146,9.634268,-0.004886922,0.002443461,-0.002443461
2022-03-17T15:05:11-03:00,57.0,0.091412544,914.7676,192.0,77.0,0.0,0.0,6187306.0,6271354.0,0.0,-1.7621324,-0.89543146,9.634268,-0.004886922,0.002443461,-0.002443461
2022-03-17T15:05:11-03:00,57.0,0.0915699,914.8142,184.0,77.0,0.0,0.0,6187787.0,6271486.0,0.0,-1.7166426,-0.8355764,9.662998,-0.0061086523,0.0036651916,-0.0036651916
2022-03-17T15:05:11-03:00,57.0,0.09172726,914.8142,184.0,77.0,0.0,0.0,6187992.0,6271925.0,0.0,-1.7166426,-0.8355764,9.662998,-0.0061086523,0.0036651916,-0.0036651916
2022-03-17T15:05:11-03:00,57.0,0.09188557,914.8142,184.0,77.0,0.0,0.0,6188079.0,6272071.0,0.0,-1.7166426,-0.8355764,9.662998,-0.0061086523,0.0036651916,-0.0036651916
2022-03-17T15:05:11-03:00,57.0,0.09204388,914.8142,184.0,77.0,0.0,0.0,6188807.0,6272250.0,0.0,-1.7142484,-0.8858546,9.662998,-0.0036651916,0.009773844,-0.002443461
2022-03-17T15:05:12-03:00,57.0,0.09220028,914.78076,180.0,77.0,0.0,0.0,6188223.0,6272718.0,0.0,-1.7142484,-0.8858546,9.662998,-0.0036651916,0.009773844,-0.002443461
2022-03-17T15:05:12-03:00,57.0,0.092357635,914.78076,180.0,77.0,0.0,0.0,6188922.0,6272871.0,0.0,-1.7142484,-0.8858546,9.662998,-0.0036651916,0.009773844,-0.002443461
2022-03-17T15:05:12-03:00,57.0,0.092515945,914.78076,180.0,79.0,0.0,0.0,6188679.0,6272698.0,0.0,-1.7286136,-0.9792285,9.67018,-0.0061086523,0.0012217305,0.002443461
2022-03-17T15:05:12-03:00,57.0,0.0926733,914.78076,180.0,79.0,0.0,0.0,6188430.0,6271703.0,0.0,-1.7286136,-0.9792285,9.67018,-0.0061086523,0.0012217305,0.002443461
2022-03-17T15:05:12-03:00,57.0,0.09282875,914.7832,176.0,79.0,0.0,0.0,6187478.0,6270896.0,0.0,-1.7286136,-0.9792285,9.67018,-0.0061086523,0.0012217305,0.002443461
2022-03-17T15:05:12-03:00,57.0,0.0929842,914.7832,176.0,79.0,0.0,0.0,6187900.0,6271284.0,0.0,-1.733402,-0.93613285,9.698911,-0.002443461,-0.0012217305,0.002443461
2022-03-17T15:05:12-03:00,57.0,0.09313965,914.7832,176.0,79.0,0.0,0.0,6188316.0,6271447.0,0.0,-1.733402,-0.93613285,9.698911,-0.002443461,-0.0012217305,0.002443461
2022-03-17T15:05:12-03:00,57.0,0.09329605,914.7832,176.0,79.0,0.0,0.0,6188710.0,6271679.0,0.0,-1.733402,-0.93613285,9.698911,-0.002443461,-0.0012217305,0.002443461
2022-03-17T15:05:12-03:00,57.0,0.09345245,914.7637,180.0,79.0,0.0,0.0,6188742.0,6272241.0,0.0,-1.7381904,-0.866701,9.605537,-0.009773844,0.004886922,-0.0061086523
2022-03-17T15:05:12-03:00,57.0,0.0936079,914.7637,180.0,79.0,0.0,0.0,6188700.0,6271891.0,0.0,-1.7381904,-0.866701,9.605537,-0.009773844,0.004886922,-0.0061086523
2022-03-17T15:05:12-03:00,57.0,0.0937624,914.7637,180.0,79.0,0.0,0.0,6188750.0,6271634.0,0.0,-1.7381904,-0.866701,9.605537,-0.009773844,0.004886922,-0.0061086523
2022-03-17T15:05:12-03:00,57.0,0.09391689,914.7637,180.0,79.0,0.0,0.0,6188517.0,6271896.0,0.0,-1.7381904,-0.866701,9.605537,-0.009773844,0.004886922,-0.0061086523
2022-03-17T15:05:12-03:00,57.0,0.09407234,914.8154,180.0,79.0,0.0,0.0,6188852.0,6272003.0,0.0,-1.6687586,-0.9528923,9.617508,0.0012217305,0.0036651916,0.002443461
2022-03-17T15:05:12-03:00,57.0,0.09422779,914.8154,180.0,79.0,0.0,0.0,6189449.0,6272324.0,0.0,-1.6687586,-0.9528923,9.617508,0.0012217305,0.0036651916,0.002443461
2022-03-17T15:05:12-03:00,57.0,0.09438324,914.8154,180.0,79.0,0.0,0.0,6189735.0,6272148.0,0.0,-1.6687586,-0.9528923,9.617508,0.0012217305,0.0036651916,0.002443461
2022-03-17T15:05:12-03:00,57.0,0.09453869,914.8154,180.0,79.0,0.0,0.0,6189937.0,6273331.0,0.0,-1.7860745,-0.8762778,9.660604,-0.0061086523,0.002443461,-0.0036651916
2022-03-17T15:05:12-03:00,57.0,0.094696045,914.76196,184.0,79.0,0.0,0.0,6189628.0,6272538.0,0.0,-1.7860745,-0.8762778,9.660604,-0.0061086523,0.002443461,-0.0036651916
2022-03-17T15:05:12-03:00,57.0,0.09485531,914.76196,184.0,79.0,0.0,0.0,6188374.0,6271642.0,0.0,-1.7860745,-0.8762778,9.660604,-0.0061086523,0.002443461,-0.0036651916
2022-03-17T15:05:12-03:00,57.0,0.09501362,914.76196,184.0,79.0,0.0,0.0,6187554.0,6271215.0,0.0,-1.7932571,-0.92176765,9.610326,-0.007330383,0.002443461,-0.0012217305
2022-03-17T15:05:13-03:00,57.0,0.09517193,914.76196,184.0,79.0,0.0,0.0,6187989.0,6270781.0,0.0,-1.7932571,-0.92176765,9.610326,-0.007330383,0.002443461,-0.0012217305
2022-03-17T15:05:13-03:00,57.0,0.09533024,914.77905,188.0,79.0,0.0,0.0,6188602.0,6271223.0,0.0,-1.7932571,-0.92176765,9.610326,-0.007330383,0.002443461,-0.0012217305
2022-03-17T15:05:13-03:00,57.0,0.09548855,914.77905,188.0,80.0,0.0,0.0,6188872.0,6271944.0,0.0,-1.7166426,-0.9792285,9.672575,-0.013439035,0.008552114,-0.0012217305
2022-03-17T15:05:13-03:00,57.0,0.095645905,914.77905,188.0,80.0,0.0,0.0,6188793.0,6271939.0,0.0,-1.7166426,-0.9792285,9.672575,-0.013439035,0.008552114,-0.0012217305
2022-03-17T15:05:13-03:00,56.0,0.095804214,914.77905,188.0,80.0,0.0,0.0,6189438.0,6271413.0,0.0,-1.7166426,-0.9792285,9.672575,-0.013439035,0.008552114,-0.0012217305
2022-03-17T15:05:13-03:00,56.0,0.095962524,914.77563,196.0,80.0,0.0,0.0,6189244.0,6271662.0,0.0,-1.6759412,-0.92176765,9.595961,-0.0061086523,0.0061086523,-0.0012217305
2022-03-17T15:05:13-03:00,56.0,0.096123695,914.77563,196.0,80.0,0.0,0.0,6188746.0,6272017.0,0.0,-1.6759412,-0.92176765,9.595961,-0.0061086523,0.0061086523,-0.0012217305
2022-03-17T15:05:13-03:00,56.0,0.09628487,914.77563,196.0,80.0,0.0,0.0,6188985.0,6271881.0,0.0,-1.6759412,-0.92176765,9.595961,-0.0061086523,0.0061086523,-0.0012217305
2022-03-17T15:05:13-03:00,56.0,0.09644508,914.77563,200.0,80.0,0.0,0.0,6189846.0,6272332.0,0.0,-1.7477672,-0.8714894,9.631873,-0.002443461,0.0036651916,0.0012217305
2022-03-17T15:05:13-03:00,56.0,0.09660244,914.77563,200.0,80.0,0.0,0.0,6190181.0,6272946.0,0.0,-1.7477672,-0.8714894,9.631873,-0.002443461,0.0036651916,0.0012217305
2022-03-17T15:05:13-03:00,56.0,0.096759796,914.77563,200.0,80.0,0.0,0.0,6190467.0,6272944.0,0.0,-1.7477672,-0.8714894,9.631873,-0.002443461,0.0036651916,0.0012217305
2022-03-17T15:05:13-03:00,56.0,0.096918106,914.77563,200.0,80.0,0.0,0.0,6189793.0,6272840.0,0.0,-1.7070658,-0.90261406,9.607931,-0.002443461,0.0,0.002443461
2022-03-17T15:05:13-03:00,56.0,0.09706783,914.76685,208.0,80.0,0.0,0.0,6188917.0,6270994.0,0.0,-1.7070658,-0.90261406,9.607931,-0.002443461,0.0,0.002443461
2022-03-17T15:05:13-03:00,56.0,0.097216606,914.76685,208.0,80.0,0.0,0.0,6187798.0,6270260.0,0.0,-1.7070658,-0.90261406,9.607931,-0.002443461,0.0,0.002443461
2022-03-17T15:05:13-03:00,56.0,0.09736633,914.76685,208.0,80.0,0.0,0.0,6187693.0,6269869.0,0.0,-1.6879122,-0.7733272,9.7084875,0.002443461,-0.0012217305,0.004886922
2022-03-17T15:05:13-03:00,56.0,0.09752369,914.76685,208.0,80.0,0.0,0.0,6188240.0,6270170.0,0.0,-1.6879122,-0.7733272,9.7084875,0.002443461,-0.0012217305,0.004886922
2022-03-17T15:05:13-03:00,56.0,0.097681046,914.77783,216.0,80.0,0.0,0.0,6188589.0,6270323.0,0.0,-1.6879122,-0.7733272,9.7084875,0.002443461,-0.0012217305,0.004886922
2022-03-17T15:05:13-03:00,56.0,0.097839355,914.77783,216.0,80.0,0.0,0.0,6188663.0,6270814.0,0.0,-1.7070658,-0.80684596,9.65821,-0.004886922,0.0012217305,-0.0012217305
2022-03-17T15:05:13-03:00,56.0,0.09799862,914.77783,216.0,80.0,0.0,0.0,6188308.0,6271163.0,0.0,-1.7070658,-0.80684596,9.65821,-0.004886922,0.0012217305,-0.0012217305
2022-03-17T15:05:13-03:00,56.0,0.09815693,914.77783,216.0,80.0,0.0,0.0,6188570.0,6271218.0,0.0,-1.7070658,-0.80684596,9.65821,-0.004886922,0.0012217305,-0.0012217305
2022-03-17T15:05:14-03:00,56.0,0.09831524,914.7886,224.0,80.0,0.0,0.0,6188995.0,6271372.0,0.0,-1.697489,-0.8738836,9.691729,-0.002443461,0.0061086523,0.0012217305
2022-03-17T15:05:14-03:00,56.0,0.09847069,914.7886,224.0,80.0,0.0,0.0,6189162.0,6271743.0,0.0,-1.697489,-0.8738836,9.691729,-0.002443461,0.0061086523,0.0012217305
2022-03-17T15:05:14-03:00,56.0,0.09862614,914.7886,224.0,81.0,0.0,0.0,6189778.0,6271891.0,0.0,-1.697489,-0.8738836,9.691729,-0.002443461,0.0061086523,0.0012217305
2022-03-17T15:05:14-03:00,56.0,0.098781586,914.7886,224.0,81.0,0.0,0.0,6189389.0,6272167.0,0.0,-1.745373,-0.7541735,9.655815,0.004886922,0.0,0.002443461
2022-03-17T15:05:14-03:00,56.0,0.0989275,914.7698,232.0,81.0,0.0,0.0,6190088.0,6272313.0,0.0,-1.745373,-0.7541735,9.655815,0.004886922,0.0,0.002443461
2022-03-17T15:05:14-03:00,56.0,0.0990715,914.7698,232.0,81.0,0.0,0.0,6189553.0,6271560.0,0.0,-1.745373,-0.7541735,9.655815,0.004886922,0.0,0.002443461
2022-03-17T15:05:14-03:00,56.0,0.09921551,914.7698,232.0,81.0,0.0,0.0,6188127.0,6270683.0,0.0,-1.745373,-0.7541735,9.655815,0.004886922,0.0,0.002443461
2022-03-17T15:05:14-03:00,56.0,0.099360466,914.7698,232.0,81.0,0.0,0.0,6186971.0,6269306.0,0.0,-1.7262194,-0.8523358,9.65821,0.0,0.0012217305,0.0036651916
2022-03-17T15:05:14-03:00,56.0,0.099508286,914.7822,232.0,81.0,0.0,0.0,6187100.0,6268910.0,0.0,-1.7262194,-0.8523358,9.65821,0.0,0.0012217305,0.0036651916
2022-03-17T15:05:14-03:00,56.0,0.099656105,914.7822,232.0,81.0,0.0,0.0,6187099.0,6269751.0,0.0,-1.7262194,-0.8523358,9.65821,0.0,0.0012217305,0.0036651916
2022-03-17T15:05:14-03:00,56.0,0.099803925,914.7822,232.0,81.0,0.0,0.0,6188286.0,6269962.0,0.0,-1.6807296,-0.80684596,9.61272,-0.012217305,0.007330383,-0.002443461
2022-03-17T15:05:14-03:00,56.0,0.09996033,914.7822,232.0,81.0,0.0,0.0,6188252.0,6270862.0,0.0,-1.6807296,-0.80684596,9.61272,-0.012217305,0.007330383,-0.002443461
2022-03-17T15:05:14-03:00,56.0,0.100115776,914.7749,240.0,81.0,0.0,0.0,6188270.0,6270571.0,0.0,-1.6807296,-0.80684596,9.61272,-0.012217305,0.007330383,-0.002443461
2022-03-17T15:05:14-03:00,56.0,0.10027218,914.7749,240.0,81.0,0.0,0.0,6188224.0,6270453.0,0.0,-1.733402,-0.90261406,9.593566,-0.008552114,0.0036651916,-0.0036651916
2022-03-17T15:05:14-03:00,56.0,0.100429535,914.7749,240.0,81.0,0.0,0.0,6188525.0,6270614.0,0.0,-1.733402,-0.90261406,9.593566,-0.008552114,0.0036651916,-0.0036651916
2022-03-17T15:05:14-03:00,56.0,0.100587845,914.7871,240.0,81.0,0.0,0.0,6188855.0,6270932.0,0.0,-1.733402,-0.90261406,9.593566,-0.008552114,0.0036651916,-0.0036651916
2022-03-17T15:05:14-03:00,56.0,0.100746155,914.7871,240.0,81.0,0.0,0.0,6188595.0,6271016.0,0.0,-1.7669208,-0.80205756,9.639056,0.0012217305,0.0,0.002443461
2022-03-17T15:05:14-03:00,56.0,0.10089493,914.7871,240.0,81.0,0.0,0.0,6189375.0,6271118.0,0.0,-1.7669208,-0.80205756,9.639056,0.0012217305,0.0,0.002443461
2022-03-17T15:05:14-03:00,56.0,0.10104275,914.7871,240.0,81.0,0.0,0.0,6189985.0,6271923.0,0.0,-1.7669208,-0.80205756,9.639056,0.0012217305,0.0,0.002443461
2022-03-17T15:05:15-03:00,56.0,0.10119057,914.7722,240.0,81.0,0.0,0.0,6189859.0,6271780.0,0.0,-1.7405846,-0.8475474,9.619903,-0.0012217305,0.004886922,0.0
2022-03-17T15:05:15-03:00,56.0,0.10133839,914.7722,240.0,81.0,0.0,0.0,6189045.0,6271147.0,0.0,-1.7405846,-0.8475474,9.619903,-0.0012217305,0.004886922,0.0
2022-03-17T15:05:15-03:00,56.0,0.101486206,914.7722,240.0,81.0,0.0,0.0,6187270.0,6269708.0,0.0,-1.7405846,-0.8475474,9.619903,-0.0012217305,0.004886922,0.0
2022-03-17T15:05:15-03:00,56.0,0.10163498,914.7722,240.0,81.0,0.0,0.0,6187379.0,6269134.0,0.0,-1.697489,-0.8690952,9.651027,0.0061086523,0.0,0.004886922
2022-03-17T15:05:15-03:00,56.0,0.10178089,914.77734,240.0,81.0,0.0,0.0,6187970.0,6269550.0,0.0,-1.697489,-0.8690952,9.651027,0.0061086523,0.0,0.004886922
2022-03-17T15:05:15-03:00,56.0,0.10192776,914.77734,240.0,81.0,0.0,0.0,6188592.0,6269632.0,0.0,-1.697489,-0.8690952,9.651027,0.0061086523,0.0,0.004886922
2022-03-17T15:05:15-03:00,56.0,0.10207462,914.77734,240.0,81.0,0.0,0.0,6188596.0,6270603.0,0.0,-1.7405846,-0.8595184,9.672575,0.004886922,-0.0012217305,-0.0012217305
2022-03-17T15:05:15-03:00,56.0,0.10223293,914.77734,240.0,81.0,0.0,0.0,6188740.0,6270088.0,0.0,-1.7405846,-0.8595184,9.672575,0.004886922,-0.0012217305,-0.0012217305
2022-03-17T15:05:15-03:00,56.0,0.10239124,914.7927,244.0,81.0,0.0,0.0,6188142.0,6270116.0,0.0,-1.7405846,-0.8595184,9.672575,0.004886922,-0.0012217305,-0.0012217305
2022-03-17T15:05:15-03:00,56.0,0.1025486,914.7927,244.0,81.0,0.0,0.0,6188598.0,6270116.0,0.0,-1.745373,-0.93134445,9.629479,-0.0012217305,0.0061086523,-0.0012217305
2022-03-17T15:05:15-03:00,56.0,0.102705956,914.7927,244.0,81.0,0.0,0.0,6188707.0,6270800.0,0.0,-1.745373,-0.93134445,9.629479,-0.0012217305,0.0061086523,-0.0012217305
2022-03-17T15:05:15-03:00,56.0,0.10286522,914.7927,244.0,81.0,0.0,0.0,6189434.0,6270830.0,0.0,-1.745373,-0.93134445,9.629479,-0.0012217305,0.0061086523,-0.0012217305
2022-03-17T15:05:15-03:00,56.0,0.10302353,914.8313,244.0,81.0,0.0,0.0,6189883.0,6271270.0,0.0,-1.7166426,-0.79008657,9.701305,-0.0036651916,0.002443461,-0.002443461
2022-03-17T15:05:15-03:00,56.0,0.103180885,914.8313,244.0,81.0,0.0,0.0,6189947.0,6271810.0,0.0,-1.7166426,-0.79008657,9.701305,-0.0036651916,0.002443461,-0.002443461
2022-03-17T15:05:15-03:00,56.0,0.103339195,914.8313,244.0,81.0,0.0,0.0,6190565.0,6271990.0,0.0,-1.7166426,-0.79008657,9.701305,-0.0036651916,0.002443461,-0.002443461
2022-03-17T15:05:15-03:00,56.0,0.103497505,914.8313,244.0,81.0,0.0,0.0,6190095.0,6272002.0,0.0,-1.721431,-0.89303726,9.706094,-0.0012217305,-0.008552114,0.0
2022-03-17T15:05:15-03:00,56.0,0.10364723,914.7954,244.0,81.0,0.0,0.0,6189335.0,6270728.0,0.0,-1.721431,-0.89303726,9.706094,-0.0012217305,-0.008552114,0.0
2022-03-17T15:05:15-03:00,56.0,0.103796005,914.7954,244.0,81.0,0.0,0.0,6188855.0,6270393.0,0.0,-1.721431,-0.89303726,9.706094,-0.0012217305,-0.008552114,0.0
2022-03-17T15:05:15-03:00,56.0,0.10394573,914.7954,244.0,81.0,0.0,0.0,6188743.0,6270393.0,0.0,-1.721431,-0.89303726,9.706094,-0.0012217305,-0.008552114,0.0
2022-03-17T15:05:15-03:00,56.0,0.104094505,914.7954,244.0,81.0,0.0,0.0,6188370.0,6269317.0,0.0,-1.6352397,-0.79726917,9.607931,-0.009773844,0.0012217305,-0.0012217305
2022-03-17T15:05:16-03:00,56.0,0.10425377,914.7717,248.0,81.0,0.0,0.0,6188591.0,6269593.0,0.0,-1.6352397,-0.79726917,9.607931,-0.009773844,0.0012217305,-0.0012217305
2022-03-17T15:05:16-03:00,56.0,0.10441208,914.7717,248.0,82.0,0.0,0.0,6189383.0,6270119.0,0.0,-1.6352397,-0.79726917,9.607931,-0.009773844,0.0012217305,-0.0012217305
2022-03-17T15:05:16-03:00,56.0,0.10457039,914.7717,248.0,82.0,0.0,0.0,6189302.0,6269890.0,0.0,-1.70946,-0.9888053,9.622296,-0.014660766,0.0061086523,-0.0061086523
2022-03-17T15:05:16-03:00,56.0,0.10472584,914.7717,248.0,82.0,0.0,0.0,6189257.0,6270206.0,0.0,-1.70946,-0.9888053,9.622296,-0.014660766,0.0061086523,-0.0061086523
2022-03-17T15:05:16-03:00,56.0,0.10488129,914.79785,248.0,82.0,0.0,0.0,6189644.0,6270337.0,0.0,-1.70946,-0.9888053,9.622296,-0.014660766,0.0061086523,-0.0061086523
2022-03-17T15:05:16-03:00,56.0,0.10503769,914.79785,248.0,82.0,0.0,0.0,6190162.0,6270852.0,0.0,-1.733402,-0.90740246,9.65821,-0.007330383,0.0012217305,-0.0012217305
2022-03-17T15:05:16-03:00,56.0,0.105195045,914.79785,248.0,82.0,0.0,0.0,6190328.0,6271181.0,0.0,-1.733402,-0.90740246,9.65821,-0.007330383,0.0012217305,-0.0012217305
2022-03-17T15:05:16-03:00,56.0,0.105353355,914.79785,248.0,82.0,0.0,0.0,6190899.0,6271718.0,0.0,-1.733402,-0.90740246,9.65821,-0.007330383,0.0012217305,-0.0012217305
2022-03-17T15:05:16-03:00,56.0,0.105511665,914.78296,256.0,82.0,0.0,0.0,6190688.0,6271818.0,0.0,-1.7836803,-0.89064306,9.617508,-0.004886922,0.0,-0.002443461
2022-03-17T15:05:16-03:00,56.0,0.105662346,914.78296,256.0,82.0,0.0,0.0,6191471.0,6272147.0,0.0,-1.7836803,-0.89064306,9.617508,-0.004886922,0.0,-0.002443461
2022-03-17T15:05:16-03:00,56.0,0.10581303,914.78296,256.0,82.0,0.0,0.0,6190547.0,6271362.0,0.0,-1.7836803,-0.89064306,9.617508,-0.004886922,0.0,-0.002443461
2022-03-17T15:05:16-03:00,56.0,0.10596275,914.79834,260.0,82.0,0.0,0.0,6189881.0,6270425.0,0.0,-1.7286136,-0.94810385,9.639056,-0.0061086523,0.0,-0.002443461
2022-03-17T15:05:16-03:00,56.0,0.106113434,914.79834,260.0,82.0,0.0,0.0,6189441.0,6270105.0,0.0,-1.7286136,-0.94810385,9.639056,-0.0061086523,0.0,-0.002443461
2022-03-17T15:05:16-03:00,56.0,0.10626507,914.79834,260.0,82.0,0.0,0.0,6189608.0,6269918.0,0.0,-1.7286136,-0.94810385,9.639056,-0.0061086523,0.0,-0.002443461
2022-03-17T15:05:16-03:00,56.0,0.10641575,914.79834,260.0,82.0,0.0,0.0,6190069.0,6270263.0,0.0,-1.7956513,-0.866701,9.607931,-0.0061086523,0.010995574,0.0
2022-03-17T15:05:16-03:00,56.0,0.10656357,914.8154,264.0,82.0,0.0,0.0,6190188.0,6270736.0,0.0,-1.7956513,-0.866701,9.607931,-0.0061086523,0.010995574,0.0
2022-03-17T15:05:16-03:00,56.0,0.106710434,914.8154,264.0,82.0,0.0,0.0,6190603.0,6270878.0,0.0,-1.7956513,-0.866701,9.607931,-0.0061086523,0.010995574,0.0
2022-03-17T15:05:16-03:00,56.0,0.10685825,914.8154,264.0,82.0,0.0,0.0,6190133.0,6270769.0,0.0,-1.7549498,-0.81402856,9.593566,-0.0012217305,0.0,-0.002443461
2022-03-17T15:05:16-03:00,56.0,0.10700798,914.8154,264.0,82.0,0.0,0.0,6190898.0,6270833.0,0.0,-1.7549498,-0.81402856,9.593566,-0.0012217305,0.0,-0.002443461
2022-03-17T15:05:17-03:00,56.0,0.10715771,914.7654,264.0,82.0,0.0,0.0,6190936.0,6270794.0,0.0,-1.7549498,-0.81402856,9.593566,-0.0012217305,0.0,-0.002443461
2022-03-17T15:05:17-03:00,56.0,0.107307434,914.7654,264.0,82.0,0.0,0.0,6191342.0,6271506.0,0.0,-1.6807296,-0.9696517,9.648633,-0.002443461,0.004886922,0.0012217305
2022-03-17T15:05:17-03:00,56.0,0.10746384,914.7654,264.0,82.0,0.0,0.0,6190680.0,6271485.0,0.0,-1.6807296,-0.9696517,9.648633,-0.002443461,0.004886922,0.0012217305
2022-03-17T15:05:17-03:00,56.0,0.107619286,914.7654,264.0,82.0,0.0,0.0,6191809.0,6271919.0,0.0,-1.6807296,-0.9696517,9.648633,-0.002443461,0.004886922,0.0012217305
2022-03-17T15:05:17-03:00,56.0,0.10777569,914.8093,268.0,82.0,0.0,0.0,6191648.0,6271705.0,0.0,-1.7118542,-0.9624691,9.636662,-0.0012217305,-0.002443461,0.004886922
2022-03-17T15:05:17-03:00,56.0,0.10793209,914.8093,268.0,82.0,0.0,0.0,6190796.0,6271244.0,0.0,-1.7118542,-0.9624691,9.636662,-0.0012217305,-0.002443461,0.004886922
2022-03-17T15:05:17-03:00,56.0,0.10808849,914.8093,268.0,82.0,0.0,0.0,6190109.0,6270110.0,0.0,-1.7118542,-0.9624691,9.636662,-0.0012217305,-0.002443461,0.004886922
2022-03-17T15:05:17-03:00,56.0,0.108244896,914.8093,268.0,82.0,0.0,0.0,6190076.0,6269501.0,0.0,-1.6927006,-0.93852705,9.662998,0.0,0.0012217305,0.004886922
2022-03-17T15:05:17-03:00,56.0,0.10839367,914.7991,268.0,82.0,0.0,0.0,6190492.0,6270297.0,0.0,-1.6927006,-0.93852705,9.662998,0.0,0.0012217305,0.004886922
2022-03-17T15:05:17-03:00,56.0,0.10854149,914.7991,268.0,82.0,0.0,0.0,6191192.0,6270500.0,0.0,-1.6927006,-0.93852705,9.662998,0.0,0.0012217305,0.004886922
2022-03-17T15:05:17-03:00,56.0,0.10868931,914.7991,268.0,82.0,0.0,0.0,6191431.0,6270537.0,0.0,-1.6927006,-0.93852705,9.662998,0.0,0.0012217305,0.004886922
2022-03-17T15:05:17-03:00,56.0,0.10883713,914.7991,268.0,82.0,0.0,0.0,6191006.0,6270627.0,0.0,-1.7549498,-0.8714894,9.607931,-0.0036651916,-0.0012217305,-0.002443461
2022-03-17T15:05:17-03:00,56.0,0.10899544,914.8015,260.0,82.0,0.0,0.0,6191251.0,6271032.0,0.0,-1.7549498,-0.8714894,9.607931,-0.0036651916,-0.0012217305,-0.002443461
2022-03-17T15:05:17-03:00,56.0,0.10915375,914.8015,260.0,82.0,0.0,0.0,6190894.0,6270898.0,0.0,-1.7549498,-0.8714894,9.607931,-0.0036651916,-0.0012217305,-0.002443461
2022-03-17T15:05:17-03:00,56.0,0.10931206,914.8015,260.0,82.0,0.0,0.0,6191153.0,6270762.0,0.0,-1.7286136,-0.9696517,9.674969,0.0012217305,0.002443461,0.002443461
2022-03-17T15:05:17-03:00,56.0,0.10946655,914.8015,260.0,82.0,0.0,0.0,6190856.0,6271176.0,0.0,-1.7286136,-0.9696517,9.674969,0.0012217305,0.002443461,0.002443461
2022-03-17T15:05:17-03:00,56.0,0.10962105,914.8015,248.0,82.0,0.0,0.0,6192086.0,6271453.0,0.0,-1.7286136,-0.9696517,9.674969,0.0012217305,0.002443461,0.002443461
2022-03-17T15:05:17-03:00,56.0,0.10977554,914.8015,248.0,82.0,0.0,0.0,6192049.0,6271712.0,0.0,-1.7190368,-0.89303726,9.631873,-0.004886922,0.0036651916,-0.0012217305
2022-03-17T15:05:17-03:00,56.0,0.10993385,914.8015,248.0,82.0,0.0,0.0,6192117.0,6271749.0,0.0,-1.7190368,-0.89303726,9.631873,-0.004886922,0.0036651916,-0.0012217305
2022-03-17T15:05:18-03:00,56.0,0.11009216,914.8015,248.0,82.0,0.0,0.0,6190180.0,6269978.0,0.0,-1.7190368,-0.89303726,9.631873,-0.004886922,0.0036651916,-0.0012217305
2022-03-17T15:05:18-03:00,56.0,0.11025047,914.75635,232.0,82.0,0.0,0.0,6189788.0,6269514.0,0.0,-1.7788919,-0.90740246,9.639056,-0.0061086523,0.004886922,0.0012217305
2022-03-17T15:05:18-03:00,56.0,0.11040878,914.75635,232.0,82.0,0.0,0.0,6189914.0,6269038.0,0.0,-1.7788919,-0.90740246,9.639056,-0.0061086523,0.004886922,0.0012217305
2022-03-17T15:05:18-03:00,56.0,0.11056709,914.75635,232.0,82.0,0.0,0.0,6189793.0,6269470.0,0.0,-1.7788919,-0.90740246,9.639056,-0.0061086523,0.004886922,0.0012217305
2022-03-17T15:05:18-03:00,56.0,0.1107254,914.7932,224.0,82.0,0.0,0.0,6190145.0,6269853.0,0.0,-1.6831238,-0.91937345,9.665392,-0.014660766,0.007330383,-0.002443461
2022-03-17T15:05:18-03:00,56.0,0.11088085,914.7932,224.0,82.0,0.0,0.0,6190883.0,6269927.0,0.0,-1.6831238,-0.91937345,9.665392,-0.014660766,0.007330383,-0.002443461
2022-03-17T15:05:18-03:00,56.0,0.111037254,914.7932,224.0,82.0,0.0,0.0,6190410.0,6270081.0,0.0,-1.6831238,-0.91937345,9.665392,-0.014660766,0.007330383,-0.002443461
2022-03-17T15:05:18-03:00,56.0,0.11119461,914.7932,224.0,82.0,0.0,0.0,6190132.0,6269645.0,0.0,-1.6950948,-0.89543146,9.677363,-0.0012217305,0.0,0.0012217305
2022-03-17T15:05:18-03:00,56.0,0.11134434,914.77954,208.0,82.0,0.0,0.0,6190886.0,6270262.0,0.0,-1.6950948,-0.89543146,9.677363,-0.0012217305,0.0,0.0012217305
2022-03-17T15:05:18-03:00,56.0,0.11149502,914.77954,208.0,82.0,0.0,0.0,6190572.0,6270088.0,0.0,-1.6950948,-0.89543146,9.677363,-0.0012217305,0.0,0.0012217305
2022-03-17T15:05:18-03:00,56.0,0.1116457,914.77954,208.0,82.0,0.0,0.0,6191218.0,6270501.0,0.0,-1.6352397,-0.8762778,9.61272,-0.0036651916,0.007330383,0.0012217305
2022-03-17T15:05:18-03:00,56.0,0.11180115,914.77954,208.0,82.0,0.0,0.0,6191817.0,6271001.0,0.0,-1.6352397,-0.8762778,9.61272,-0.0036651916,0.007330383,0.0012217305
2022-03-17T15:05:18-03:00,56.0,0.11195755,914.7622,192.0,82.0,0.0,0.0,6191757.0,6271361.0,0.0,-1.6352397,-0.8762778,9.61272,-0.0036651916,0.007330383,0.0012217305
2022-03-17T15:05:18-03:00,56.0,0.112113,914.7622,192.0,82.0,0.0,0.0,6190699.0,6270781.0,0.0,-1.6424223,-0.89303726,9.631873,0.0012217305,-0.002443461,0.002443461
2022-03-17T15:05:18-03:00,56.0,0.112267494,914.7622,192.0,82.0,0.0,0.0,6189737.0,6268956.0,0.0,-1.6424223,-0.89303726,9.631873,0.0012217305,-0.002443461,0.002443461
2022-03-17T15:05:18-03:00,56.0,0.11242485,914.7622,192.0,82.0,0.0,0.0,6189162.0,6268410.0,0.0,-1.6424223,-0.89303726,9.631873,0.0012217305,-0.002443461,0.002443461
2022-03-17T15:05:18-03:00,56.0,0.11258125,914.7837,176.0,82.0,0.0,0.0,6188895.0,6268252.0,0.0,-1.7405846,-0.89064306,9.715671,-0.0012217305,0.0012217305,0.0061086523
2022-03-17T15:05:18-03:00,56.0,0.11273956,914.7837,176.0,82.0,0.0,0.0,6188752.0,6268633.0,0.0,-1.7405846,-0.89064306,9.715671,-0.0012217305,0.0012217305,0.0061086523
2022-03-17T15:05:18-03:00,56.0,0.11289787,914.7837,176.0,82.0,0.0,0.0,6189701.0,6269097.0,0.0,-1.7405846,-0.89064306,9.715671,-0.0012217305,0.0012217305,0.0061086523
